GyroX,GyroY,GyroZ,AccelX,AccelY,AccelZ,MagX,MagY,MagZ,Temperature
0.32839,-0.24594,0.11330,0.00562,-0.00102,-1.01198,26.883,-1.267,45.647,25.006
0.38484,-0.04547,0.22850,0.00088,-0.00591,-1.00812,26.862,-0.872,45.712,24.995
0.42977,-0.43803,0.08316,0.00392,0.00699,-1.00193,26.894,-1.138,45.897,24.945
0.43524,-0.44718,-0.26299,-0.00486,-0.00733,-0.99299,26.966,-1.505,45.913,24.951
0.33706,-0.26408,0.14716,0.00655,0.00511,-0.99720,26.962,-1.080,45.545,24.966
0.27950,-0.14510,0.09248,0.01869,-0.00655,-1.00879,26.992,-0.845,45.828,25.044
0.56395,-0.23410,-0.08344,-0.00426,0.00762,-1.01155,26.808,-1.137,45.622,25.039
0.43712,0.12821,0.22300,-0.00488,-0.00449,-1.00665,27.038,-1.342,45.684,25.040
0.24148,-0.26405,-0.14619,-0.00866,-0.00454,-0.99667,27.098,-1.205,45.767,25.012
0.51271,-0.08600,0.17105,-0.00809,0.00723,-0.99695,27.107,-1.207,46.190,24.986
0.58896,-0.20273,0.05256,-0.00903,-0.00121,-0.98861,27.004,-1.028,45.107,25.040
0.43338,-0.30249,0.03589,-0.00002,0.01380,-1.00844,26.693,-0.860,45.590,24.986
0.36467,-0.40619,0.16299,-0.00968,0.00708,-0.99997,27.371,-1.130,46.043,24.940
0.33168,-0.17153,0.39186,-0.01345,0.00792,-0.99527,27.183,-1.022,45.714,24.979
0.16277,-0.19069,0.10125,0.01616,-0.00489,-0.99744,26.408,-1.299,45.767,25.047
0.56722,-0.22662,-0.03759,0.00366,0.00414,-0.99607,26.625,-0.917,45.723,25.041
0.54111,-0.12861,0.17298,0.01722,0.00195,-1.00237,26.828,-0.829,45.731,25.032
0.52936,-0.29693,-0.12899,0.00240,0.00184,-1.00486,27.018,-1.048,45.453,25.033
0.32058,-0.44245,0.19794,-0.00036,-0.00596,-0.99582,26.922,-1.344,45.801,25.058
0.24310,-0.16287,0.13041,0.01813,-0.01490,-0.99444,26.723,-1.225,46.177,25.007
0.68614,-0.28632,0.18258,-0.00393,-0.00553,-0.99950,26.729,-1.149,45.175,25.108
0.32495,0.04144,-0.02107,0.00234,0.02532,-1.00696,26.426,-1.337,45.819,25.043
0.54356,-0.25855,-0.11034,-0.00348,0.00992,-0.99627,26.311,-1.209,46.051,25.115
0.43425,-0.17360,-0.05603,-0.00675,0.00038,-0.99597,26.945,-1.320,45.413,24.970
0.17645,-0.12349,-0.21684,-0.00267,0.00360,-0.98782,26.818,-0.950,45.602,24.972
0.24884,0.00910,0.27913,0.00390,0.02664,-1.00026,26.955,-1.123,45.646,25.126
0.57599,-0.42992,0.07002,0.00343,0.00627,-1.01079,26.236,-1.677,45.683,25.005
0.40178,-0.33545,-0.05364,-0.01618,0.00263,-0.99704,27.048,-1.002,45.654,25.078
0.32954,-0.31913,0.05191,-0.00468,-0.01733,-0.99875,26.862,-1.291,45.523,25.030
0.60753,-0.21426,0.05385,-0.00473,-0.00056,-1.01012,26.769,-1.185,46.162,25.059
0.50510,-0.32694,0.23049,-0.00912,0.00250,-0.99665,26.608,-0.700,45.843,24.917
0.43293,-0.28111,0.13021,0.00373,0.00312,-1.01631,26.510,-1.007,46.027,25.108
0.62048,-0.52833,0.24542,-0.01533,0.01291,-0.99797,26.515,-0.698,45.862,24.918
0.39402,-0.32967,0.14669,-0.00372,0.01099,-1.01139,26.879,-0.746,45.495,25.024
0.38030,-0.32346,0.22718,0.00078,-0.00755,-0.98590,26.998,-1.242,45.542,24.974
0.53464,-0.24197,0.19892,-0.00148,0.00493,-1.00093,26.991,-1.246,45.909,25.048
0.33251,-0.34897,-0.01102,-0.00593,-0.00788,-0.99307,26.788,-0.807,46.271,25.016
0.11780,-0.27722,0.11870,-0.01191,-0.00200,-0.99770,26.685,-1.392,45.512,25.104
0.32605,-0.34449,0.07407,0.00763,-0.00548,-0.99615,26.982,-1.013,46.051,24.988
0.51991,-0.33893,0.07052,0.00957,0.00658,-0.99998,26.502,-1.060,45.544,24.969
0.25278,-0.18303,-0.18815,0.00289,0.00139,-1.00468,27.059,-1.047,45.550,24.982
0.45427,-0.44741,0.08011,-0.00505,0.00056,-0.99831,26.809,-0.916,45.758,25.001
0.16837,-0.11172,0.20922,0.01161,-0.00598,-0.99979,26.785,-1.222,45.704,24.931
0.47375,-0.12202,0.29957,0.01800,-0.00255,-1.00029,26.802,-0.714,45.268,25.041
0.12938,-0.60724,-0.17312,-0.01105,0.00855,-1.00695,26.743,-1.491,45.854,24.963
0.54765,-0.36897,0.01528,0.00098,0.00020,-0.98860,26.830,-1.502,45.561,24.989
0.45876,-0.16243,0.11209,0.00696,-0.00423,-1.00109,26.845,-0.818,45.677,25.001
0.19312,-0.11709,0.04185,0.00275,-0.01521,-0.99165,26.467,-1.394,45.966,24.952
0.33808,-0.20886,-0.01978,0.01074,0.01199,-1.01577,26.438,-0.998,45.376,25.000
0.36943,-0.11622,0.09651,0.00076,-0.00621,-0.98966,26.676,-1.115,45.573,25.025
0.32478,-0.24437,-0.02207,0.00637,0.01131,-0.99805,26.983,-0.990,45.933,25.035
0.38184,-0.09040,0.14032,-0.00779,0.00019,-1.01511,26.799,-1.097,46.010,25.028
0.48922,-0.22008,-0.02352,-0.01129,-0.00776,-1.01093,26.958,-1.252,45.844,25.024
0.50661,-0.06097,0.03320,-0.00219,-0.00426,-1.01297,26.969,-0.903,45.700,24.997
0.51364,-0.57174,0.15662,0.00115,-0.00457,-0.98887,27.043,-1.265,45.680,25.002
0.27318,-0.41623,0.33699,0.00822,0.00639,-1.00875,27.320,-0.705,45.748,24.977
0.22004,-0.15722,-0.00695,-0.00027,0.00871,-1.01205,27.301,-0.808,45.392,24.952
0.30749,-0.37467,0.09044,-0.02065,-0.00183,-0.98558,26.521,-1.268,45.329,25.055
0.31620,0.07111,0.16103,-0.00298,0.00440,-1.00405,26.465,-1.125,45.658,25.032
0.40632,-0.29655,0.19324,0.01390,-0.00886,-0.98610,26.739,-1.392,46.308,25.031
0.55556,-0.09736,-0.12209,0.00097,-0.00420,-1.01073,26.357,-1.174,45.849,25.044
0.30413,-0.33978,-0.01803,-0.00444,-0.00826,-1.00163,26.794,-1.424,45.643,24.986
0.34933,-0.14394,0.15672,0.00378,-0.01322,-1.00303,26.869,-1.040,45.302,25.033
0.53096,-0.24679,0.11579,0.00360,0.00198,-0.99460,26.818,-1.162,45.506,25.017
0.53797,-0.25063,0.10472,-0.00393,0.00630,-1.00684,27.028,-1.434,45.437,25.036
0.36953,-0.17537,0.28938,-0.00330,0.00354,-1.00728,27.115,-1.042,45.835,25.035
0.23216,-0.26911,0.20527,-0.00015,0.00099,-1.01088,26.845,-1.373,45.430,25.019
0.07152,-0.11521,0.25780,-0.00043,-0.00795,-1.00756,26.762,-1.806,45.746,25.060
0.30322,-0.29416,0.15730,0.00281,0.00875,-0.99985,26.628,-1.315,45.747,25.105
0.30196,-0.37788,-0.00052,-0.01677,0.00264,-1.01089,26.492,-1.694,45.422,25.056
0.15330,-0.48245,0.15674,-0.00273,0.00346,-0.99408,26.798,-1.524,45.670,25.053
0.26255,-0.43562,0.29539,-0.00332,-0.00327,-0.99987,27.058,-1.134,45.618,25.063
0.67205,-0.01183,0.23093,-0.00898,0.03002,-1.00959,26.707,-1.375,46.108,25.050
0.13593,-0.17986,0.21204,-0.00255,-0.00976,-1.00580,26.691,-1.194,45.571,25.066
0.20751,-0.47971,0.01909,0.01079,-0.00459,-0.98127,26.923,-1.491,45.493,25.042
0.17335,0.13619,-0.01863,0.00545,0.01168,-1.00087,26.551,-1.268,45.792,25.074
0.35851,-0.43003,0.13635,-0.00539,-0.01747,-1.00558,26.442,-1.053,46.187,25.123
0.26402,-0.29011,0.23332,0.00849,-0.00335,-1.00114,27.352,-1.227,45.580,25.037
0.43696,-0.37325,0.09274,-0.00933,-0.00223,-0.98498,26.985,-1.223,45.468,25.016
0.50761,-0.30425,0.34756,-0.01099,-0.00232,-0.98606,26.298,-0.903,45.238,25.027
0.32412,-0.09636,-0.34318,-0.01534,-0.00453,-0.99970,26.577,-1.255,45.405,25.012
0.22299,-0.18340,0.21721,0.01146,-0.00525,-1.00254,26.812,-1.274,45.688,24.954
0.40576,-0.35728,-0.01354,-0.01271,0.00929,-1.00112,27.087,-1.132,45.275,24.979
0.46369,-0.33485,-0.03355,-0.00144,-0.00142,-1.00809,26.718,-1.320,45.054,25.058
0.22829,-0.02433,-0.04252,-0.01264,0.00950,-1.01268,26.641,-1.051,45.619,24.951
0.37821,-0.24915,0.32258,0.00471,0.02429,-1.01317,26.795,-1.467,45.990,25.075
0.46311,-0.33660,0.01823,-0.01624,0.01368,-0.99593,26.735,-0.967,45.889,25.083
0.10647,-0.32708,0.15932,0.00284,0.00766,-1.00807,26.832,-0.649,45.874,25.078
0.34712,-0.10486,0.40060,0.00085,0.00979,-1.00700,26.948,-0.974,45.513,25.090
0.24871,-0.34079,0.12982,0.01546,0.00247,-0.99251,26.617,-1.181,45.407,25.007
0.47535,-0.22576,0.34769,-0.00162,-0.00158,-0.98979,26.638,-1.580,46.027,25.057
0.02522,-0.21332,0.06943,0.01396,-0.00583,-1.00465,26.572,-1.464,45.526,24.965
0.19532,-0.46099,-0.09459,-0.01248,-0.00417,-1.00547,26.493,-1.080,45.689,25.015
0.28040,0.01893,0.16597,0.00380,-0.02069,-1.00523,26.257,-1.307,45.795,25.003
0.42779,-0.37341,0.21637,-0.01243,-0.00209,-0.99664,26.934,-1.232,46.186,25.017
0.28235,-0.63393,0.39534,-0.00295,-0.00941,-0.98943,27.109,-1.173,45.343,25.059
0.25679,-0.39562,0.28651,-0.01706,0.00454,-0.99633,27.313,-1.119,45.187,24.997
0.35970,-0.16667,0.27712,-0.01568,-0.00264,-0.99224,27.186,-0.735,45.604,25.094
0.60676,-0.04029,0.23855,0.00662,-0.00632,-1.01158,27.046,-1.287,45.694,25.010
0.29106,-0.18509,-0.02328,0.00055,0.00197,-1.00062,26.614,-1.003,46.169,25.010
0.53517,-0.08661,-0.26799,-0.00609,-0.00509,-0.99375,26.847,-1.081,45.860,24.995
0.23802,-0.40343,0.10446,-0.00095,0.00137,-1.00582,27.027,-0.971,46.088,25.076
0.37783,-0.11914,0.22146,-0.00521,0.01032,-0.98625,27.294,-1.191,45.782,25.062
0.34962,-0.12711,0.11182,-0.00155,0.01407,-0.99868,26.817,-0.979,45.739,25.056
0.34047,-0.40306,0.12535,-0.00910,0.00168,-1.00945,27.029,-1.013,45.771,25.037
0.41245,-0.51475,-0.03452,-0.00119,0.00276,-1.00064,26.549,-1.167,45.588,24.989
0.39943,-0.25150,0.30947,0.00532,0.00588,-0.99743,26.589,-1.434,45.333,25.186
0.18808,-0.25147,0.07594,-0.00225,-0.00467,-1.01495,26.550,-1.548,45.670,25.009
0.24692,-0.18762,0.04258,0.00746,-0.00309,-0.99820,26.469,-1.036,45.600,25.064
0.39950,-0.24602,0.16262,-0.00308,0.01077,-0.99253,26.921,-1.495,45.426,25.010
0.31325,-0.15280,-0.00448,0.00942,0.00003,-1.01610,26.681,-1.846,45.513,25.017
0.25844,-0.26879,0.07088,-0.00475,0.01202,-0.99028,26.515,-0.887,45.296,25.004
0.57878,-0.55593,0.21622,-0.01003,-0.00115,-1.00144,27.224,-1.403,45.684,25.076
0.31223,-0.34331,0.12112,0.00075,0.00707,-1.00754,26.688,-1.119,45.659,25.036
0.34745,-0.32438,0.01005,0.00353,-0.00876,-0.99068,26.854,-1.519,45.772,25.054
0.46432,-0.04617,0.07504,-0.00566,-0.00485,-1.00785,26.613,-1.129,45.705,25.021
0.23926,-0.16782,0.05476,-0.00832,-0.00121,-1.00212,26.532,-0.993,45.913,25.048
0.36966,-0.14090,0.12536,0.00713,0.01325,-0.99936,26.910,-0.982,45.617,24.990
0.48590,-0.45531,0.39833,0.00696,0.00150,-0.99959,27.238,-1.437,45.411,25.017
0.31073,-0.37097,0.15308,0.00109,-0.00651,-0.98718,26.452,-1.519,45.795,25.037
0.41266,-0.31285,-0.02500,-0.00516,-0.00547,-0.99580,26.680,-1.010,45.848,25.100
0.48511,-0.10235,0.24548,-0.00413,-0.00210,-1.01464,26.873,-1.368,45.802,25.075
0.14719,-0.37208,0.07760,-0.00414,0.00134,-1.00924,26.812,-1.622,45.162,25.085
0.15420,-0.30399,-0.08260,-0.01127,-0.00319,-1.00328,27.046,-1.088,45.636,25.087
0.51748,-0.15831,0.06905,0.00815,0.01415,-0.99472,27.243,-0.968,45.913,24.995
0.18297,-0.22742,-0.12042,-0.00474,0.00694,-1.00532,26.933,-1.538,45.578,25.101
0.38128,-0.17646,0.38571,0.01037,-0.00701,-0.98946,26.646,-1.204,45.705,25.104
0.18061,-0.15222,0.20860,0.00649,-0.00168,-0.99197,26.622,-0.913,45.789,24.981
0.41119,-0.19310,0.07665,-0.00589,-0.00192,-1.01154,27.223,-1.482,45.536,25.108
0.43775,-0.11196,0.35751,-0.00250,-0.00837,-0.99325,26.999,-1.282,45.385,25.114
0.43638,-0.42602,0.24699,-0.01153,-0.00386,-1.00899,26.641,-1.408,45.548,25.088
0.39419,-0.12569,0.29385,-0.00298,0.00064,-0.99569,27.227,-0.975,46.047,25.103
0.50859,-0.48770,0.26213,0.00170,0.00043,-1.00422,26.694,-1.096,45.911,24.978
0.38272,-0.30410,-0.01262,0.00314,-0.00263,-1.00527,26.608,-1.130,45.699,24.999
0.22385,-0.24738,0.19077,-0.00840,0.00390,-1.00659,27.482,-1.435,45.504,25.063
0.21464,-0.09586,0.40021,-0.00310,0.00138,-1.00414,26.800,-0.842,45.925,25.009
0.58189,-0.04569,0.20296,-0.00527,0.00053,-1.00636,26.917,-1.279,45.143,25.101
0.37872,-0.05823,0.10957,0.00151,0.00892,-0.99690,26.872,-0.396,45.659,25.063
0.61010,-0.34075,-0.02615,-0.01146,0.00427,-0.99499,26.985,-1.538,45.953,25.115
0.33540,-0.21512,0.23134,0.00294,0.00514,-1.00869,26.756,-1.503,45.859,25.082
0.33518,-0.17548,-0.10348,0.00686,-0.00374,-0.99897,27.079,-1.389,46.001,25.062
0.35423,-0.13659,-0.05705,0.00475,0.00049,-0.99171,26.746,-1.291,45.794,25.053
0.17390,-0.24909,0.32014,-0.00074,-0.00696,-0.99427,26.337,-1.730,45.700,25.066
0.38306,-0.35392,0.10743,-0.01119,0.00176,-1.01292,26.763,-1.135,45.262,25.031
0.46822,0.01235,-0.09559,0.00272,-0.00989,-1.01076,27.199,-1.033,45.500,25.069
0.44629,-0.19281,0.46709,0.00485,-0.02394,-1.00232,26.616,-1.251,45.705,25.025
0.18726,-0.01549,0.21960,-0.00537,0.00544,-0.99460,27.117,-1.464,45.896,25.028
0.52326,-0.24887,-0.21077,0.00028,-0.01427,-1.00174,26.785,-1.300,45.330,25.003
0.22331,-0.25722,0.32327,0.00567,-0.00378,-0.98981,26.458,-1.029,45.657,25.071
0.44577,-0.32194,0.25017,-0.00007,0.01929,-1.00243,27.117,-1.038,45.408,25.128
0.19094,-0.55480,0.25800,0.00855,0.00042,-1.00209,27.196,-1.022,45.537,25.097
0.16351,-0.30385,-0.02767,-0.01760,-0.00942,-0.99022,26.526,-1.338,45.411,25.104
0.35018,-0.14639,0.11415,-0.00937,-0.00779,-0.99330,26.786,-1.006,44.911,25.116
0.27590,0.10593,0.05339,0.00023,0.00528,-1.00701,27.018,-1.361,46.024,25.101
0.42435,-0.32863,0.09841,0.00240,-0.01627,-1.00441,27.035,-1.517,46.021,25.030
0.39849,-0.39215,0.20266,0.00370,0.00909,-0.98917,27.113,-1.148,45.395,25.128
0.15438,-0.28581,0.24057,0.00355,0.01274,-1.00003,26.377,-1.269,45.745,25.045
0.56187,-0.25714,-0.08538,0.00373,-0.00918,-0.98640,26.868,-1.551,45.971,25.181
0.04939,-0.08454,0.20260,0.00141,0.00275,-0.99606,26.627,-0.847,45.364,25.161
0.57915,-0.39792,0.12919,0.01136,-0.00393,-1.00130,26.699,-0.908,45.549,25.063
0.43103,-0.25114,0.00004,-0.01073,-0.01215,-1.00944,26.370,-1.382,45.776,25.067
0.22601,-0.37270,-0.01901,-0.01110,-0.00989,-0.99429,26.449,-1.196,45.547,25.186
0.08046,-0.19100,0.07994,-0.00617,0.00252,-0.99876,26.533,-1.093,45.799,25.130
0.25850,0.00057,0.10048,-0.01581,0.00418,-1.00065,26.579,-0.967,45.583,25.116
0.33759,-0.10745,0.23192,0.00379,-0.00826,-0.99264,26.805,-0.699,45.821,25.103
0.23527,-0.28092,0.14451,-0.00936,-0.00936,-1.00087,26.781,-1.149,45.981,25.046
0.45213,-0.24170,0.10090,0.00206,-0.01654,-0.99947,26.640,-1.432,45.230,25.044
0.06838,-0.08948,0.09410,-0.01346,-0.00539,-0.99396,26.651,-1.270,45.609,25.060
0.09503,-0.22682,0.04629,0.02363,-0.00170,-1.00364,27.047,-1.239,45.765,25.023
0.58328,-0.31415,0.18630,0.00906,-0.00244,-1.00000,26.947,-1.029,45.429,25.077
0.20819,-0.33181,0.03274,0.00973,0.01277,-0.97916,26.786,-1.410,45.459,25.148
0.11924,-0.26755,0.04509,0.01400,-0.00811,-0.99119,27.128,-1.242,45.818,24.991
0.33677,-0.25225,-0.25694,0.00332,0.00284,-1.01355,26.447,-1.387,45.569,25.053
0.20628,-0.37118,0.17598,-0.00380,-0.00085,-1.00184,26.914,-1.239,45.917,25.074
0.48336,-0.03294,-0.08907,0.00738,0.01426,-1.00778,26.792,-1.289,45.811,25.096
0.24961,-0.02312,0.00150,-0.00111,0.00819,-0.98437,26.672,-1.004,45.756,24.991
0.20672,-0.40072,0.05450,-0.00333,0.00022,-0.98978,26.906,-0.537,45.640,25.110
0.41216,0.00599,0.07319,0.00676,0.01303,-1.00577,26.781,-1.074,45.593,25.027
0.62491,-0.25445,0.39011,-0.00407,-0.00166,-0.99362,26.748,-1.425,45.521,25.085
0.25008,-0.20679,-0.20859,-0.00446,-0.00144,-1.00410,26.552,-1.421,45.719,25.146
0.14024,-0.26144,0.27656,0.00268,-0.00075,-1.00361,26.803,-1.225,45.155,25.036
0.05756,-0.02634,0.25340,-0.00631,0.00644,-0.98041,26.644,-0.875,45.792,25.061
0.18411,-0.30339,0.07076,-0.01853,0.00424,-1.00257,26.915,-1.305,46.451,24.990
0.21004,-0.11422,0.48377,-0.00794,0.01463,-1.00734,27.123,-1.181,46.259,25.162
0.25284,0.22036,-0.03862,-0.00251,0.01446,-1.00588,26.640,-1.167,45.814,25.093
0.23815,-0.19047,0.22561,0.01203,0.00263,-1.01002,26.807,-1.355,46.031,24.990
0.43396,-0.37981,0.32081,0.00617,0.00175,-0.99596,26.716,-1.031,45.689,25.111
0.35879,-0.59218,0.05295,0.01214,0.01162,-0.99916,26.768,-1.284,45.859,25.104
0.20314,-0.12075,0.31493,-0.00764,-0.00149,-0.99629,26.981,-1.305,45.569,25.052
0.40778,-0.15563,0.12709,-0.01091,-0.00872,-0.99491,26.495,-1.143,45.611,25.045
0.35400,0.03145,0.17332,-0.00237,-0.01179,-0.99590,27.084,-1.048,45.993,25.100
0.15451,-0.22674,0.20873,0.00577,-0.00394,-1.00051,26.891,-0.882,45.953,25.109
0.40943,-0.37379,-0.03514,-0.00073,0.00833,-0.99684,26.940,-1.575,45.336,25.133
0.34480,-0.41705,0.26233,0.00206,0.02361,-0.99000,26.887,-1.238,45.759,25.072
0.13418,-0.08087,0.17123,-0.02204,-0.00508,-1.00663,27.045,-1.211,46.073,24.998
0.18863,-0.05994,0.03172,-0.00847,-0.00421,-1.00608,26.935,-0.920,45.305,25.063
0.35214,-0.20767,0.25499,0.00096,-0.00464,-1.00890,26.344,-1.293,45.705,25.124
0.29333,0.12856,0.11853,-0.00387,0.00304,-1.00776,26.852,-1.716,45.870,25.082
0.38159,-0.19678,-0.06106,-0.00719,0.01253,-0.99604,26.651,-1.095,45.803,25.177
0.51655,-0.15832,0.06262,0.01427,-0.00081,-1.00696,26.495,-1.416,45.610,25.118
0.48698,-0.04734,0.15295,0.00665,0.01807,-0.99272,27.201,-1.578,45.516,25.042
-0.05156,-0.20895,0.33887,-0.00428,0.00156,-1.00683,26.677,-1.129,45.402,25.139
0.06219,-0.17166,0.05628,0.01191,0.00609,-1.01667,26.194,-1.450,45.576,25.071
0.35454,-0.11896,-0.07490,-0.01440,0.00202,-1.00289,26.774,-1.360,45.658,25.156
0.10651,-0.40383,0.22624,0.01254,-0.00165,-1.01010,26.300,-1.135,45.389,25.190
0.70124,-0.18605,0.20282,-0.00094,0.00913,-1.00002,26.816,-0.860,45.858,25.189
0.10448,-0.30334,-0.00559,0.00673,-0.00395,-0.99518,26.508,-1.224,46.276,25.164
0.06822,-0.16531,0.25395,-0.00395,-0.00882,-0.99470,26.825,-1.062,45.662,25.199
0.21292,-0.29440,0.20723,0.00585,-0.01103,-0.98962,26.435,-1.198,45.625,25.048
0.51999,-0.57206,0.02038,-0.00722,0.00700,-0.98760,26.994,-0.851,45.145,25.092
0.14254,-0.27624,0.16670,0.00076,0.01101,-1.01583,26.591,-1.570,45.292,25.134
0.37736,0.01349,0.30778,0.00055,-0.00776,-0.99207,26.627,-1.500,45.414,25.090
0.53983,-0.21211,0.31366,0.00073,-0.00341,-0.97823,27.255,-1.151,45.493,25.004
0.41020,-0.25833,0.20005,0.00258,0.00349,-0.99086,26.879,-1.381,45.509,25.114
0.18923,-0.11225,0.23713,-0.00035,-0.00625,-1.01421,26.519,-1.606,45.708,25.063
0.21190,-0.08911,0.14940,0.00038,0.00446,-0.99171,26.399,-1.023,45.249,25.046
0.50182,-0.11632,0.22971,0.00146,0.01130,-1.01233,26.724,-1.188,46.210,25.138
0.50576,-0.33420,0.46745,0.00377,-0.00805,-0.98124,26.443,-1.417,45.643,25.038
0.42908,-0.17849,0.14703,0.01515,-0.01307,-0.98907,26.594,-0.834,46.178,25.202
0.32142,-0.39449,0.17919,-0.00043,-0.01410,-0.99412,26.569,-0.839,45.943,25.074
0.35542,-0.25639,0.06139,0.02479,-0.00749,-0.99956,27.048,-1.296,45.544,25.022
0.52881,-0.11320,0.20049,-0.01207,0.00403,-0.99772,26.715,-1.544,45.687,25.045
0.36201,-0.21050,0.07928,0.00706,-0.00053,-0.99577,26.905,-0.948,45.460,25.072
0.48830,-0.19697,0.29887,0.00596,-0.00356,-0.99296,26.736,-0.961,46.165,25.144
0.69343,-0.45274,0.04774,-0.00213,-0.00320,-0.99702,26.708,-0.923,45.947,25.110
0.19817,-0.13789,0.23114,0.00283,0.00024,-0.98880,26.663,-1.292,45.868,25.117
0.47789,-0.26260,-0.06721,-0.00990,-0.00346,-0.99366,26.998,-1.654,45.835,25.086
0.19368,0.10862,0.16959,0.00662,0.02054,-1.00465,26.701,-0.828,45.374,25.094
0.35693,-0.07447,0.19081,-0.00731,0.00778,-0.99324,26.537,-1.372,45.570,25.034
0.50970,-0.26858,0.08833,-0.00830,-0.00316,-0.98812,26.987,-1.604,45.454,25.123
0.27528,-0.30299,0.00093,-0.01065,0.00076,-1.00304,27.085,-1.217,45.460,25.127
0.55192,-0.33036,-0.12539,-0.00383,-0.01080,-0.98687,26.453,-1.282,46.070,25.136
0.27295,-0.33746,0.10278,-0.00192,0.01197,-1.00124,26.463,-0.954,45.960,25.081
0.46582,-0.21231,-0.05102,-0.00065,-0.00916,-1.00507,26.565,-1.117,45.748,25.027
0.21202,-0.22040,0.19966,0.00058,-0.01765,-0.98970,27.243,-0.804,45.837,25.127
0.25187,-0.19171,-0.03959,0.00097,-0.01144,-0.99532,26.711,-1.008,45.747,25.071
0.47650,-0.39601,0.09027,-0.00430,0.00595,-1.00060,26.868,-1.069,45.115,25.048
0.36739,-0.06813,0.21589,0.01049,-0.00177,-0.99919,26.675,-1.309,45.494,25.068
0.32143,-0.31773,0.13399,-0.01455,0.00342,-0.99858,26.912,-1.316,45.574,25.144
0.32682,0.07798,-0.08092,-0.00198,-0.00902,-1.00629,26.603,-1.320,45.897,25.038
0.44150,-0.43613,0.06917,0.01056,0.00370,-0.99782,26.958,-1.056,45.858,25.166
0.19423,-0.23061,0.22559,0.00600,0.00446,-0.98955,26.675,-1.537,46.019,25.096
0.26770,-0.21464,0.06516,0.00805,0.00712,-0.99751,26.935,-1.192,45.958,24.979
0.17477,-0.22599,0.06798,-0.00760,0.00496,-1.00783,26.854,-1.169,45.716,25.056
0.32103,-0.03596,0.21153,0.00770,-0.00064,-1.01362,26.683,-1.238,46.027,25.154
0.41373,-0.34848,0.14927,-0.00209,-0.00195,-1.00987,26.916,-1.207,45.902,25.025
0.18095,0.32694,-0.00201,0.00230,0.00350,-1.00786,27.232,-1.216,45.739,25.189
0.23135,-0.29315,0.07817,-0.01098,0.00221,-0.99622,26.846,-1.036,45.918,25.116
0.31378,-0.03694,0.02550,0.01117,-0.00154,-0.99388,27.257,-1.766,45.653,25.079
0.60611,-0.28102,0.53935,-0.01222,0.00280,-1.00309,26.926,-1.341,45.589,25.008
39.63613,-0.44469,-0.06645,0.00069,-0.00097,-0.99178,26.462,-1.095,45.782,25.085
39.47999,-0.23186,0.26260,-0.00299,-0.00693,-1.00210,27.231,-0.600,45.653,25.020
39.32835,-0.16281,0.09588,0.00225,-0.03287,-1.00083,26.644,0.060,45.630,25.194
39.34242,-0.05218,-0.02817,-0.00372,-0.04778,-0.98908,26.909,0.612,45.723,25.047
39.52069,-0.01157,0.12486,0.00011,-0.04947,-0.99991,26.750,1.044,45.550,25.078
39.24591,-0.26924,0.06575,-0.00501,-0.08020,-0.98519,26.927,1.970,45.468,25.175
38.94611,-0.00210,0.12799,-0.00036,-0.08589,-0.99604,26.856,2.710,45.942,25.107
38.85702,-0.62765,0.05946,0.00200,-0.08794,-0.99209,26.786,2.800,45.305,25.198
38.55451,-0.02383,0.13159,-0.00428,-0.10386,-0.99432,26.768,3.483,45.288,25.060
38.02428,-0.42781,0.21974,0.00671,-0.12759,-1.00722,26.898,4.118,45.386,25.037
37.41024,0.03673,0.09754,0.00404,-0.13499,-0.98762,26.480,4.509,44.969,25.050
37.19195,-0.49098,0.06082,-0.00569,-0.15675,-0.99016,26.797,4.968,45.732,25.140
37.03049,-0.26926,0.26404,0.00612,-0.16808,-0.99259,27.529,5.623,45.266,25.094
36.51485,-0.36919,-0.02079,0.00907,-0.17083,-1.00484,26.806,6.221,45.230,25.121
35.93380,-0.20688,0.17357,-0.00922,-0.19123,-0.98961,26.465,6.995,45.226,25.136
35.24956,-0.30057,0.06402,0.00890,-0.19258,-0.96653,26.558,7.265,44.539,25.035
34.73919,-0.27036,0.05308,-0.01228,-0.20709,-0.98026,27.029,7.973,44.420,25.126
34.06143,0.00988,0.12556,-0.00403,-0.22354,-0.98744,27.119,8.869,44.205,25.094
33.49012,-0.30914,0.31263,0.00998,-0.23364,-0.95622,26.808,8.771,44.593,25.070
33.04735,-0.12750,0.07676,-0.00148,-0.25007,-0.96798,26.477,9.315,44.276,25.136
32.27641,-0.10196,0.11161,-0.00568,-0.25606,-0.96742,26.922,9.642,44.043,25.117
31.58314,0.06085,0.24898,-0.00792,-0.25299,-0.97122,26.607,10.349,43.817,25.148
30.59994,-0.16013,0.00649,0.00677,-0.27045,-0.96448,27.036,10.024,44.128,25.103
29.68754,-0.19342,0.20497,-0.00590,-0.28552,-0.95899,26.898,11.429,43.795,25.175
28.78090,-0.17488,-0.12794,0.00057,-0.28849,-0.93954,26.812,11.355,44.041,25.112
28.13277,-0.08245,0.29391,-0.01386,-0.30325,-0.95291,26.533,11.543,43.640,25.087
27.12340,-0.24061,0.07735,0.00014,-0.30012,-0.95008,27.270,12.653,43.771,25.074
26.27564,-0.35796,0.19238,-0.00054,-0.31795,-0.94449,26.842,12.631,43.159,25.089
25.48907,-0.24458,0.12100,0.00694,-0.32600,-0.95581,26.780,12.867,43.264,25.131
24.49522,0.02957,0.05488,-0.00236,-0.33339,-0.93346,26.542,13.607,43.319,25.104
23.39011,-0.11010,0.19408,0.00321,-0.35157,-0.95212,26.776,13.702,43.146,25.074
22.51817,-0.15856,0.01898,0.00756,-0.35584,-0.94116,26.863,14.086,42.686,25.143
21.39050,-0.33373,-0.13309,0.00341,-0.35934,-0.93195,27.144,13.771,43.113,25.181
20.19300,-0.06780,0.00821,-0.00834,-0.36761,-0.91568,26.890,14.695,42.905,25.082
19.49305,0.01559,0.19438,-0.00631,-0.36454,-0.92543,26.961,15.240,42.683,25.068
18.40171,-0.17811,0.17862,0.00492,-0.37656,-0.91939,26.849,15.169,42.332,25.088
17.02709,-0.07158,0.07947,-0.00089,-0.38544,-0.91880,26.962,15.949,42.022,25.103
16.03191,-0.47277,0.39120,-0.00093,-0.39618,-0.91312,26.250,15.733,42.028,25.114
14.86233,-0.10112,0.19170,0.01669,-0.39416,-0.92157,27.107,15.873,42.291,24.918
13.72019,-0.23122,0.06476,-0.00525,-0.39188,-0.93324,27.587,16.370,42.196,25.211
12.52627,-0.35425,0.28406,-0.01309,-0.39837,-0.90554,26.934,15.895,42.077,25.110
11.19462,-0.56680,-0.04782,-0.00401,-0.39785,-0.89147,27.014,16.220,41.850,25.171
10.20810,-0.16136,0.16571,0.00959,-0.39227,-0.91194,26.840,16.686,41.776,25.007
8.99052,-0.33004,0.32749,0.00146,-0.40109,-0.91756,27.083,16.279,42.069,25.105
7.84906,-0.27372,0.23237,0.00402,-0.41254,-0.90601,27.220,16.656,42.135,25.100
6.67421,0.13096,0.01025,-0.01725,-0.41643,-0.91410,26.668,16.807,41.609,25.190
5.44063,-0.04613,0.47682,-0.00617,-0.43947,-0.89157,26.863,16.951,41.256,25.051
4.14941,-0.24147,-0.19293,-0.00752,-0.41247,-0.89690,26.854,17.732,41.936,25.209
3.01577,-0.09531,-0.07088,-0.01280,-0.42777,-0.90460,26.800,17.160,41.655,25.143
1.73163,-0.21881,0.08680,-0.02097,-0.41545,-0.91259,26.573,17.308,41.878,25.154
0.49295,-0.38411,0.09562,-0.00440,-0.40878,-0.89940,26.739,17.310,41.738,25.114
-0.81347,-0.09241,0.10868,-0.01000,-0.41959,-0.90851,26.514,16.899,41.586,25.122
-2.03152,-0.25187,0.19749,-0.00299,-0.41747,-0.90345,26.942,17.425,41.589,25.041
-3.35731,-0.09859,0.13374,0.00254,-0.43464,-0.91380,26.935,17.218,41.492,25.140
-4.67848,-0.39287,0.14065,0.00174,-0.41633,-0.90192,27.219,17.202,41.617,25.169
-6.01329,-0.20490,0.28802,0.00543,-0.41112,-0.89328,26.615,17.088,41.719,25.178
-6.99080,-0.10269,0.36202,0.00505,-0.41728,-0.91249,26.626,17.056,42.113,25.110
-8.48787,-0.31503,0.19510,-0.00757,-0.42874,-0.91425,26.290,16.768,41.734,25.126
-9.22153,-0.35619,-0.19219,-0.00023,-0.40640,-0.92345,26.708,16.473,41.898,25.092
-10.20644,-0.25937,0.15798,-0.00388,-0.42800,-0.90245,26.011,16.756,41.625,25.056
-11.80140,0.10939,0.17794,-0.00153,-0.40931,-0.90992,26.707,16.436,41.535,25.150
-12.90451,-0.42403,-0.02490,-0.00118,-0.40299,-0.91459,26.441,15.860,42.632,25.082
-14.17013,-0.24656,0.08823,0.00966,-0.39923,-0.91199,26.586,16.082,42.133,25.116
-15.25925,-0.13746,-0.04902,-0.00776,-0.37353,-0.91684,26.710,15.841,42.261,25.013
-16.34611,-0.23828,0.18237,-0.00620,-0.38639,-0.91393,26.762,15.348,42.461,25.106
-17.31799,-0.24618,0.18451,-0.00563,-0.38904,-0.91962,26.865,15.373,42.654,25.053
-18.55045,-0.52087,0.20790,-0.00869,-0.36937,-0.92198,26.665,14.950,42.880,25.044
-19.54346,-0.20224,0.27222,-0.01322,-0.36677,-0.92147,27.140,14.491,42.613,25.219
-20.90484,-0.22686,0.15661,0.00140,-0.36760,-0.92519,27.022,14.848,42.598,25.103
-21.55847,0.05230,0.12850,-0.01222,-0.35483,-0.92787,26.970,14.368,43.393,25.106
-22.86794,-0.40041,0.11158,0.00815,-0.33190,-0.93659,26.804,13.737,43.338,25.090
-23.73454,-0.23161,0.12593,0.01447,-0.34512,-0.92151,26.636,13.230,42.988,25.161
-24.68369,-0.05182,0.00645,-0.01339,-0.33287,-0.94178,26.433,13.059,43.411,25.088
-25.74325,-0.38428,0.10848,0.00365,-0.29950,-0.93759,26.485,12.337,43.375,25.208
-26.43353,-0.29910,0.28025,0.01102,-0.30104,-0.95837,26.909,12.022,43.328,25.066
-27.45731,-0.43540,0.24624,-0.00010,-0.31058,-0.94890,27.183,12.035,43.511,25.116
-28.29215,-0.32523,-0.12676,-0.00303,-0.28433,-0.96234,26.317,11.520,44.060,25.044
-29.07829,-0.15828,0.21053,0.00446,-0.27970,-0.97133,26.954,11.466,43.856,25.149
-30.06015,-0.02455,0.03724,0.01320,-0.27760,-0.95615,26.667,11.158,43.544,25.150
-30.99123,-0.40072,0.41380,0.00726,-0.28034,-0.96450,26.645,10.385,44.625,25.164
-31.35483,-0.14379,-0.03388,0.00561,-0.24630,-0.97219,26.639,10.147,44.337,25.075
-32.19299,-0.28863,0.12032,-0.00058,-0.24480,-0.95668,27.008,9.684,43.982,25.138
-32.63046,-0.11119,0.02810,-0.00605,-0.22399,-0.97449,26.962,8.871,44.494,25.139
-33.57570,0.03518,0.21223,0.01119,-0.22452,-0.97976,26.720,8.123,44.807,25.169
-34.13945,-0.26795,0.18649,-0.00602,-0.21193,-0.96550,26.613,7.706,45.374,25.027
-34.81740,0.04960,0.06857,0.00400,-0.17984,-0.98618,26.652,7.424,44.836,25.108
-35.20247,-0.41922,0.19986,0.00668,-0.18601,-0.98458,26.937,6.664,44.879,25.131
-35.46934,-0.22738,0.11294,-0.00131,-0.17549,-0.99274,26.570,6.481,44.910,25.139
-36.23368,-0.41919,0.06029,0.01118,-0.16325,-0.99254,26.693,5.642,45.201,25.115
-36.61294,-0.29364,0.18363,0.00249,-0.14557,-0.98403,26.775,5.480,45.346,25.210
-37.00986,-0.17918,0.02767,0.00013,-0.12788,-0.99385,27.173,4.627,45.704,25.084
-37.40217,-0.29445,0.28159,0.00514,-0.12204,-0.99625,26.793,4.239,45.590,25.133
-37.75323,-0.20469,0.14939,0.00202,-0.11193,-0.98019,26.643,3.868,45.795,25.184
-37.69305,-0.13662,0.08250,-0.00418,-0.10041,-0.98877,26.430,2.560,45.888,25.188
-38.16218,-0.08150,0.24614,-0.00149,-0.09342,-0.98639,26.912,1.992,45.592,25.114
-38.45373,-0.26920,0.21268,-0.00167,-0.07744,-0.99229,26.921,1.397,45.703,25.182
-38.63313,-0.19185,0.01535,-0.01400,-0.05049,-0.99921,26.907,1.108,45.571,25.147
-38.75513,-0.09006,0.06642,-0.01156,-0.03990,-1.00958,26.167,0.303,45.555,25.099
-39.07292,-0.25370,0.31247,0.00664,-0.02733,-0.99226,26.690,-0.234,45.855,25.085
-38.85043,-0.22385,0.07559,-0.00366,-0.00461,-1.01262,26.867,-0.679,45.512,25.142
-38.87254,-0.22899,0.16676,0.01132,-0.00481,-0.99666,26.365,-1.086,45.235,25.172
-38.97181,-0.19538,-0.08832,0.00019,0.02030,-0.99495,26.796,-1.795,45.984,25.177
-38.93613,-0.30697,0.02802,-0.00029,0.01811,-1.01689,26.745,-2.323,45.732,25.195
-38.93950,-0.29697,-0.08636,0.00197,0.04021,-1.00300,26.810,-3.154,45.409,25.220
-38.48870,-0.24762,-0.10122,-0.00171,0.05925,-0.99715,27.052,-3.260,45.615,25.118
-38.51059,-0.28202,0.26568,-0.00339,0.05476,-0.99395,26.775,-4.270,45.110,25.201
-38.11988,-0.39053,0.15277,-0.00867,0.07078,-1.01345,26.995,-4.516,45.479,25.139
-37.71092,-0.33331,-0.04771,0.00102,0.09944,-0.99785,26.443,-5.507,45.677,25.179
-37.93678,-0.40339,-0.01777,-0.00020,0.12595,-0.99640,26.816,-6.089,46.093,25.113
-37.43741,-0.19657,-0.06865,0.00647,0.12137,-0.99934,26.651,-6.932,45.242,25.030
-37.06547,-0.29434,0.04165,-0.00466,0.12769,-0.98105,27.160,-7.063,45.594,25.129
-36.64367,-0.34432,0.23462,0.00494,0.13694,-0.98782,26.671,-7.802,45.223,25.048
-36.22733,0.06343,0.19535,-0.00908,0.16436,-0.98642,26.720,-8.272,45.144,25.115
-35.71612,-0.10907,0.25236,-0.01037,0.16868,-0.97217,27.249,-8.574,45.455,25.206
-35.20227,-0.51944,0.12082,-0.01026,0.18581,-0.96882,26.862,-9.395,44.664,25.047
-34.92565,0.02401,0.25839,-0.00105,0.19557,-0.98086,26.797,-9.374,44.952,25.047
-33.90338,-0.50947,0.06907,-0.01109,0.20898,-0.98805,26.456,-10.497,44.952,25.137
-33.35118,-0.01596,0.16575,0.00456,0.21253,-0.97611,26.513,-10.600,44.864,25.195
-32.81091,-0.08568,0.10820,-0.00449,0.23569,-0.96699,27.351,-11.050,44.248,25.098
-32.32463,-0.20839,-0.03495,0.01090,0.24047,-0.96494,26.838,-11.628,44.146,25.146
-31.48413,-0.23519,0.14870,0.00545,0.24994,-0.96070,26.882,-11.774,43.457,25.116
-30.49053,-0.59819,0.35270,0.00066,0.24792,-0.95865,26.537,-12.871,44.528,25.129
-30.05189,0.08119,0.26936,-0.00268,0.26824,-0.96320,27.194,-13.334,43.719,25.213
-29.14911,-0.20493,0.20873,-0.00312,0.26517,-0.96035,27.110,-12.979,43.882,25.148
-28.07171,-0.13064,0.17431,-0.01583,0.29094,-0.95400,26.421,-14.034,44.211,25.137
-27.63317,-0.50307,0.12831,-0.00462,0.29671,-0.95096,26.871,-14.305,43.744,25.089
-26.62818,-0.26892,0.12193,0.00792,0.30691,-0.95606,27.172,-14.702,43.180,25.135
-25.80508,-0.39054,-0.07014,-0.00637,0.33796,-0.93883,27.145,-14.849,43.369,25.171
-24.66616,-0.38021,-0.04436,0.00720,0.32015,-0.94241,26.963,-15.297,43.369,25.091
-23.63774,-0.24074,-0.01663,-0.01591,0.34159,-0.95357,26.373,-15.398,42.853,25.131
-22.72150,-0.20947,-0.02290,-0.00567,0.35216,-0.94057,26.794,-16.711,42.888,25.195
-21.83234,-0.36273,0.18624,0.00479,0.35577,-0.94012,26.987,-16.082,43.205,25.074
-20.25244,-0.41884,-0.05389,0.00244,0.35938,-0.93001,27.128,-16.561,42.572,25.156
-19.48833,-0.06206,0.29867,0.00654,0.37247,-0.93441,26.470,-16.977,42.570,25.215
-18.69931,-0.27718,0.06579,0.00774,0.37912,-0.92760,26.873,-16.953,42.134,25.191
-17.31617,-0.03786,0.25038,-0.00619,0.37474,-0.92008,26.653,-17.663,42.094,25.094
-16.31831,-0.28390,0.01619,-0.00150,0.38704,-0.92516,26.843,-17.833,42.307,25.154
-15.37905,-0.29524,-0.14556,-0.00933,0.38033,-0.92408,27.083,-18.082,42.313,25.108
-14.06315,0.03437,0.11691,-0.00660,0.38533,-0.91673,26.565,-18.111,41.933,25.072
-12.88021,-0.41406,0.22092,0.00830,0.39436,-0.91524,27.148,-18.598,42.503,25.139
-11.92573,-0.20537,0.16377,0.00907,0.41026,-0.91217,26.964,-18.612,42.224,25.130
-10.76814,-0.18872,0.53337,0.00646,0.40125,-0.90234,26.334,-18.880,42.055,25.123
-9.50516,-0.24550,0.04862,-0.00627,0.40148,-0.92450,26.558,-18.986,42.143,25.124
-8.39822,0.02082,-0.04149,0.00076,0.40558,-0.91645,26.897,-18.971,42.152,25.191
-6.98534,-0.12631,-0.02454,0.00968,0.41986,-0.90563,26.950,-19.566,41.501,25.164
-5.77143,-0.13374,0.14599,-0.00148,0.42781,-0.90577,26.987,-18.990,42.058,25.174
-4.46296,-0.18010,0.29088,0.01824,0.41114,-0.91378,27.196,-19.318,41.600,25.124
-3.20501,-0.13595,0.43116,-0.00073,0.42808,-0.89389,26.442,-19.687,41.747,25.130
-2.17900,-0.31914,0.10781,-0.00723,0.41160,-0.90359,26.831,-19.221,41.791,25.180
-0.77056,-0.35723,0.05523,0.00220,0.42990,-0.90123,26.747,-19.538,41.711,25.102
0.47728,-0.10416,0.26936,0.00795,0.43060,-0.92138,26.856,-19.857,41.406,25.153
1.76095,-0.17033,0.16472,0.01428,0.42435,-0.91400,26.452,-19.710,41.676,25.083
2.88151,-0.17367,0.02200,0.00083,0.42597,-0.91173,26.983,-19.645,41.807,25.234
4.09393,-0.41102,0.14331,0.00065,0.41397,-0.91720,26.705,-19.207,41.884,25.221
5.26510,0.07469,0.00308,0.00353,0.41756,-0.89583,26.808,-19.623,41.767,25.106
6.36233,-0.08105,0.12695,0.00684,0.41075,-0.89819,26.756,-19.778,41.518,25.092
7.48887,-0.14343,0.18485,0.00473,0.40970,-0.90529,26.433,-19.317,41.745,25.134
8.93153,-0.22341,0.20067,0.00243,0.42071,-0.91454,26.963,-19.017,41.895,25.169
9.79256,0.06762,-0.00730,-0.00637,0.40758,-0.92250,27.236,-19.115,41.720,25.122
11.37151,-0.01062,0.17091,-0.00619,0.41744,-0.91122,26.619,-18.835,41.988,25.175
12.48531,-0.21641,0.40942,0.02267,0.40455,-0.92246,26.537,-18.454,41.620,25.155
13.71145,-0.19275,0.06930,0.01470,0.40547,-0.92067,26.996,-18.528,41.974,25.144
14.98360,-0.30386,0.11930,0.00816,0.39709,-0.91691,26.634,-17.706,42.391,25.046
16.14159,-0.41291,-0.07581,-0.00558,0.39989,-0.92307,26.853,-18.498,42.544,25.152
16.87692,-0.17128,0.20348,0.00068,0.39496,-0.91840,27.176,-17.869,42.398,25.209
18.35196,-0.26997,0.41288,0.00092,0.37909,-0.92184,26.586,-18.025,42.984,25.219
19.12983,-0.19944,0.22353,-0.00390,0.38458,-0.93174,27.048,-17.514,42.701,25.244
20.41117,-0.29321,0.16325,0.00580,0.36338,-0.93346,27.241,-16.734,42.517,25.101
21.19936,-0.38722,0.08741,-0.00061,0.34906,-0.93167,26.074,-16.759,43.198,25.106
21.99101,-0.19502,0.23510,-0.00327,0.35493,-0.92526,27.222,-16.340,42.603,25.176
23.28223,-0.22233,0.09379,-0.00457,0.35796,-0.94016,26.430,-16.075,43.203,25.171
24.30257,-0.28486,0.04168,-0.00404,0.33237,-0.94292,26.461,-15.773,42.958,25.212
25.43877,0.00587,-0.07464,0.01129,0.32897,-0.93906,27.022,-15.245,43.292,25.192
26.30590,-0.11085,-0.00377,0.00324,0.33380,-0.93086,27.067,-14.755,43.534,25.222
27.52386,-0.22814,-0.10816,-0.00136,0.31422,-0.95643,26.501,-14.865,43.222,25.215
28.37372,-0.11869,-0.07919,0.00166,0.29680,-0.95054,26.594,-14.103,43.832,25.154
29.05220,-0.21052,0.38911,-0.01521,0.29757,-0.94578,26.708,-14.067,43.828,25.124
29.72631,-0.37363,0.10337,-0.01674,0.27974,-0.95419,26.705,-13.625,44.136,25.250
30.49740,-0.03926,-0.13257,-0.00677,0.27884,-0.95951,26.830,-12.872,43.987,25.209
31.30597,-0.31412,-0.15124,0.00541,0.25731,-0.95639,27.052,-12.698,44.184,25.181
32.08927,-0.43879,0.34686,-0.00454,0.25790,-0.96496,26.872,-12.129,44.513,25.128
32.97819,-0.19512,0.13588,-0.00332,0.24244,-0.96544,26.507,-12.144,44.337,25.208
33.46182,-0.01432,0.32440,0.01122,0.24329,-0.97068,26.942,-11.402,43.852,25.193
34.03550,-0.25018,-0.24281,0.00718,0.21868,-0.98016,26.511,-10.942,44.426,25.125
34.55053,-0.25147,0.07928,0.00688,0.19465,-0.98155,26.577,-10.150,44.735,25.216
35.61547,-0.21984,0.20950,-0.00600,0.19578,-0.98025,27.335,-10.006,44.821,25.175
35.76933,-0.16713,0.13213,0.00096,0.17894,-0.97692,26.567,-9.291,45.168,25.244
36.27761,-0.12657,0.11720,0.00835,0.17331,-0.97145,27.183,-8.909,44.971,25.137
36.85011,-0.49259,-0.12105,0.00816,0.16266,-0.98110,26.574,-8.388,45.095,25.244
37.30961,-0.19255,0.30667,0.00304,0.14872,-0.98568,26.752,-7.183,45.203,25.140
37.80014,-0.07800,0.05924,0.00579,0.14304,-1.01774,26.369,-6.921,45.076,25.260
38.10925,-0.23524,0.13926,-0.00304,0.11630,-0.99163,27.051,-6.845,45.441,25.154
38.39908,-0.33277,0.15158,-0.00858,0.10814,-0.99620,26.384,-5.785,44.744,25.158
38.45057,-0.18145,0.07959,0.00654,0.09342,-0.99718,27.080,-5.432,45.498,25.249
39.02362,0.07743,0.19886,-0.00424,0.09026,-0.98928,26.732,-4.601,45.536,25.203
39.14132,-0.23949,0.38332,0.00365,0.05756,-0.99600,26.725,-4.075,45.660,25.196
39.05549,-0.45519,0.34009,-0.00021,0.06536,-0.99428,26.667,-3.989,45.765,25.204
39.70830,-0.25038,0.14142,-0.01446,0.03620,-0.99719,26.712,-3.196,46.019,25.259
39.38220,-0.20516,0.06573,0.01188,0.02929,-0.99485,26.566,-2.054,45.610,25.272
39.76440,-0.31764,0.20904,0.00195,0.01193,-0.99391,26.794,-1.786,45.539,25.142
39.63140,-0.19320,0.29138,-0.01084,0.00090,-0.98725,26.630,-1.461,45.470,25.220
39.41061,-0.21708,0.02962,-0.00460,-0.01616,-1.00290,26.708,-0.620,45.764,25.158
39.61301,-0.29194,0.06189,0.00033,-0.04112,-1.00619,26.633,-0.270,45.627,25.144
39.30895,-0.06760,0.44237,0.00795,-0.03867,-0.99017,26.879,0.512,45.693,25.164
38.97953,-0.34621,0.00565,0.00387,-0.05851,-1.01290,26.793,1.239,45.829,25.200
39.49502,-0.35011,0.32758,0.00737,-0.07329,-0.99870,26.613,1.722,45.490,25.160
38.92354,-0.37537,0.29868,0.00702,-0.08723,-0.98976,26.537,1.890,45.635,25.210
38.56326,-0.14107,0.42407,0.02410,-0.10202,-0.99286,26.493,3.623,45.396,25.226
38.40034,-0.37856,0.09897,-0.01083,-0.11342,-0.99626,26.856,2.922,45.430,25.311
37.91788,-0.17112,0.06653,-0.02258,-0.12940,-0.99807,27.012,4.049,45.326,25.217
37.71727,-0.24474,0.23023,-0.01101,-0.13608,-0.98090,26.265,4.423,45.347,25.195
37.24785,-0.15551,-0.00298,0.00784,-0.14571,-0.97458,27.012,5.315,45.583,25.144
36.81825,-0.48253,0.26057,0.01323,-0.16382,-0.99686,27.081,5.541,45.018,25.262
36.33633,-0.24797,0.37178,0.00473,-0.18093,-0.97298,26.365,6.518,45.175,25.159
35.76564,-0.38686,0.38935,0.00100,-0.18976,-0.97820,27.101,6.878,45.130,25.233
35.34856,-0.17251,0.11269,-0.00794,-0.20693,-0.97684,26.623,7.316,44.793,25.235
34.80448,-0.17403,0.08702,-0.00110,-0.21138,-0.97599,26.369,7.830,44.840,25.206
33.98964,-0.28317,0.07288,-0.00432,-0.23002,-0.98413,26.802,8.435,44.675,25.143
33.56443,-0.24982,0.05567,-0.00740,-0.23575,-0.96706,26.754,8.801,44.273,25.327
32.48964,-0.52419,0.05127,0.00160,-0.22862,-0.96597,26.875,9.544,44.429,25.090
32.15825,-0.18741,0.45545,-0.00577,-0.24361,-0.97817,27.183,9.817,44.494,25.223
31.48099,-0.20537,0.03160,-0.00128,-0.27038,-0.96535,26.398,10.286,44.406,25.248
30.80506,-0.19713,0.10688,-0.00204,-0.27142,-0.95583,26.885,10.352,44.382,25.213
29.95540,-0.21221,0.09085,0.01550,-0.29312,-0.97216,27.299,11.182,43.804,25.160
28.67562,0.06009,0.23584,0.00408,-0.28767,-0.96304,26.915,11.814,43.233,25.219
28.23008,-0.20478,-0.00284,-0.00132,-0.30733,-0.94988,26.667,12.140,43.527,25.164
27.40738,-0.24411,0.20974,-0.01038,-0.30057,-0.96146,26.824,12.286,43.339,25.177
26.50492,0.04084,0.09450,-0.00286,-0.33651,-0.93319,26.533,12.493,43.429,25.228
25.61007,0.10619,0.24308,-0.00384,-0.33516,-0.94544,27.001,13.324,43.431,25.096
24.33388,-0.00150,0.05004,-0.00064,-0.31617,-0.94174,27.156,13.895,43.343,25.170
23.09027,-0.34884,0.22650,0.00474,-0.33634,-0.94719,26.850,13.257,42.811,25.218
22.09563,-0.09749,0.40460,-0.01149,-0.35517,-0.92184,26.925,14.189,42.939,25.124
21.37134,-0.02700,0.14305,0.00577,-0.36302,-0.93987,26.692,14.131,42.455,25.192
20.30569,-0.36106,0.23441,-0.00745,-0.36340,-0.92631,27.216,14.769,42.881,25.197
19.05734,-0.09164,0.38191,-0.00099,-0.35636,-0.92040,27.300,14.911,42.353,25.196
18.06923,-0.19023,0.09375,0.00132,-0.37978,-0.93317,26.668,15.531,42.454,25.127
16.76779,-0.26836,0.17182,-0.00944,-0.39893,-0.91858,27.599,15.673,42.121,25.189
15.92813,-0.41077,-0.08062,-0.00114,-0.38351,-0.91886,26.629,15.807,42.406,25.146
14.62354,-0.12322,0.30043,0.00324,-0.38522,-0.90709,26.418,16.009,42.515,25.252
13.86629,-0.30814,0.23226,0.00621,-0.40389,-0.91538,26.467,15.869,42.185,25.248
12.48495,0.01012,0.35340,-0.00786,-0.40398,-0.91915,27.006,16.437,41.828,25.242
11.10786,-0.04332,-0.23588,-0.00143,-0.41252,-0.90809,26.863,15.869,41.619,25.167
10.29360,0.02469,0.23230,0.01138,-0.41618,-0.90868,26.832,16.290,41.804,25.179
8.98488,-0.14569,0.04773,-0.00426,-0.42828,-0.90666,26.774,16.679,41.971,25.172
7.56387,-0.31031,0.07845,0.00174,-0.42045,-0.91307,26.468,16.694,41.348,25.165
6.57416,-0.19429,0.10657,-0.00180,-0.41054,-0.91799,26.911,16.710,41.812,25.190
5.19034,-0.17315,0.03307,-0.00970,-0.42336,-0.91779,26.836,16.813,41.391,25.217
4.10590,-0.24768,0.08616,0.00731,-0.42303,-0.90506,26.516,17.163,41.644,25.225
2.77481,-0.33295,-0.05030,-0.00165,-0.42551,-0.91705,27.113,17.323,41.151,25.092
1.35556,-0.19652,0.53196,-0.00945,-0.42496,-0.89574,26.676,17.370,41.882,25.198
0.48231,-0.07961,-0.08043,-0.00140,-0.42765,-0.90607,26.497,16.851,41.658,25.200
-0.67566,-0.18844,0.34485,0.01048,-0.41332,-0.93468,26.607,17.207,41.317,25.174
-2.01549,-0.21287,0.07767,0.01386,-0.42521,-0.89778,26.788,17.091,41.570,25.159
-3.37887,-0.42485,0.22167,0.00090,-0.42438,-0.90077,26.539,16.532,41.785,25.132
-4.78112,-0.19556,0.27495,-0.00623,-0.42664,-0.89571,26.447,17.177,41.814,25.165
-5.81363,-0.34899,0.03008,-0.00122,-0.42340,-0.92175,26.978,16.738,41.941,25.194
-6.58653,-0.13629,-0.07195,-0.01098,-0.42277,-0.91298,26.387,16.515,41.788,25.124
-8.23146,-0.18505,-0.02073,0.00483,-0.41239,-0.90195,26.966,16.633,41.795,25.226
-9.35937,-0.47392,0.26898,-0.00449,-0.40108,-0.91058,26.638,16.560,42.252,25.166
-10.86239,-0.25835,0.31891,0.01271,-0.39859,-0.93046,26.741,16.298,41.911,25.149
-11.82632,-0.39761,0.47801,0.00048,-0.40731,-0.92504,27.039,16.404,42.317,25.221
-13.02248,-0.32919,0.01534,-0.00324,-0.39362,-0.92132,26.871,16.270,41.990,25.253
-14.04318,-0.16253,0.12611,0.00139,-0.40154,-0.92554,26.863,16.113,42.129,25.230
-15.28059,-0.33742,0.13187,0.00307,-0.39534,-0.92564,26.676,15.726,41.907,25.219
-16.33108,-0.18920,0.04567,0.00224,-0.39345,-0.92916,27.000,15.123,42.209,25.177
-17.38073,-0.43601,0.04165,-0.00868,-0.36581,-0.92759,26.670,15.242,42.686,25.102
-18.73056,-0.18725,0.03553,-0.01154,-0.37878,-0.92653,26.881,15.446,42.165,25.132
-19.82118,-0.07406,-0.00439,-0.01215,-0.36030,-0.93622,27.079,14.737,42.518,25.251
-20.56949,0.00529,0.06796,-0.00255,-0.34835,-0.92401,26.864,14.182,42.534,25.136
-21.87158,-0.25102,-0.04877,0.00577,-0.37373,-0.94200,26.630,14.242,43.043,25.146
-22.69796,-0.37666,0.17372,-0.00976,-0.34469,-0.92659,27.310,14.042,42.773,25.182
-23.85878,-0.31153,-0.13217,-0.00504,-0.32904,-0.92328,26.909,13.486,43.321,25.129
-24.80844,-0.09922,0.09504,-0.00294,-0.32307,-0.95927,27.092,12.882,43.418,25.209
-25.51039,-0.07115,-0.02179,0.00670,-0.31743,-0.93551,26.668,13.018,43.585,25.187
-26.38193,-0.27585,0.26698,-0.00080,-0.31187,-0.94930,27.053,12.320,43.674,25.240
-27.54690,-0.08140,0.35094,0.00409,-0.30042,-0.95959,27.122,11.565,43.693,25.287
-28.37988,-0.13907,0.02105,0.00527,-0.30559,-0.95902,26.641,11.568,43.359,25.286
-29.06028,-0.29333,0.35335,-0.00019,-0.28251,-0.95635,27.198,11.161,43.644,25.215
-29.84501,-0.22388,0.03255,-0.00647,-0.28813,-0.95772,26.591,10.528,44.165,25.265
-30.83465,-0.27269,0.07091,0.00405,-0.27257,-0.97087,26.905,10.092,43.905,25.211
-31.55747,-0.26103,0.32257,-0.00141,-0.25476,-0.97106,26.420,9.828,44.539,25.275
-31.70137,-0.26432,0.16026,-0.00880,-0.22799,-0.96214,27.040,9.463,44.372,25.086
-32.61917,-0.11984,0.16865,-0.00661,-0.22473,-0.97040,26.850,8.555,44.243,25.208
-33.46718,-0.37601,0.39019,-0.00351,-0.22081,-0.97335,27.168,8.145,44.591,25.149
-33.90515,-0.15608,0.15377,0.00228,-0.19413,-0.97887,26.654,7.691,45.006,25.243
-34.56772,-0.31727,0.21197,0.00481,-0.19595,-0.98150,26.918,7.421,44.734,25.198
-35.43975,-0.13038,0.11354,0.01240,-0.19899,-0.98144,26.948,6.624,45.077,25.229
-35.61071,-0.25500,-0.34652,0.00065,-0.17167,-0.99087,26.469,6.397,45.152,25.294
-36.28321,-0.04217,0.13257,-0.00397,-0.15594,-0.98012,26.669,6.118,45.149,25.154
-36.76910,-0.05920,0.04706,0.00071,-0.14642,-0.99000,27.045,5.056,44.952,25.101
-37.01567,-0.25961,0.31574,-0.00563,-0.12624,-0.99324,27.230,4.377,45.208,25.250
-37.18238,-0.09341,-0.07027,0.00871,-0.12151,-1.00562,26.660,3.971,45.181,25.282
-37.60564,-0.04909,-0.00203,-0.01336,-0.10468,-0.99385,27.016,3.655,45.486,25.257
-37.96266,-0.18923,0.42677,0.01032,-0.10345,-1.00813,27.139,2.806,45.472,25.193
-38.17527,-0.28209,-0.04855,-0.01428,-0.10080,-1.00509,27.106,2.102,45.551,25.274
-38.23935,-0.30355,0.23670,-0.00300,-0.08371,-0.99001,26.828,1.534,45.652,25.235
-38.58528,-0.36523,0.10380,0.00244,-0.04863,-1.00023,26.529,1.273,45.946,25.189
-38.66975,-0.06276,0.28875,0.01076,-0.03878,-0.98790,27.138,0.371,45.742,25.231
-38.94510,-0.26938,-0.17120,0.00568,-0.02060,-0.99042,27.137,-0.165,45.645,25.296
-38.73858,-0.33063,-0.22406,-0.00183,-0.02225,-0.99940,27.043,-0.968,45.766,25.159
-38.54755,-0.21226,0.20128,-0.00835,-0.01706,-1.00767,26.561,-0.907,45.414,25.261
-38.83731,-0.23673,-0.24297,-0.00440,0.02147,-0.99561,26.837,-2.153,45.729,25.233
-38.91534,-0.15503,0.02346,-0.01606,0.02225,-1.00515,27.105,-2.206,45.672,25.193
-38.66189,0.00412,-0.01506,-0.00511,0.05026,-0.99531,26.690,-2.689,45.803,25.174
-38.56905,-0.22108,0.37790,0.00486,0.05853,-0.99744,26.930,-3.914,45.273,25.241
-38.37647,-0.28052,-0.16971,-0.00870,0.07251,-0.99666,26.640,-4.386,45.667,25.214
-38.24823,-0.29565,0.15254,0.00226,0.07666,-0.98336,26.653,-4.695,45.169,25.172
-37.83609,-0.11104,0.16220,-0.00538,0.09787,-1.00342,27.068,-5.973,45.409,25.183
-37.49194,-0.24970,0.31561,0.01157,0.11194,-1.00722,26.612,-6.014,45.547,25.242
-37.56008,-0.10231,-0.02221,-0.00283,0.12349,-0.99364,27.192,-6.173,45.051,25.167
-36.82543,-0.20301,0.22425,0.00020,0.14427,-0.98475,26.997,-7.190,45.460,25.143
-36.63442,-0.31532,0.01349,-0.00749,0.13120,-0.97919,26.747,-7.621,45.354,25.278
-35.96171,-0.28474,0.15820,-0.00724,0.16580,-0.98696,27.027,-7.919,45.339,25.252
-35.67709,-0.40640,0.17936,0.01347,0.16895,-0.99044,26.955,-8.248,44.792,25.104
-35.27470,-0.20504,0.10858,-0.00208,0.18069,-0.98797,26.593,-9.108,45.099,25.146
-34.40246,-0.15377,0.21310,-0.00226,0.19884,-0.98943,27.196,-9.368,44.795,25.160
-34.10836,-0.13131,0.07093,-0.00637,0.20995,-0.98498,27.134,-9.999,44.914,25.191
-33.42023,-0.05359,-0.18397,0.00165,0.23154,-0.96094,26.562,-10.670,44.899,25.287
-33.08263,-0.52144,0.15314,0.00399,0.23068,-0.97542,27.120,-10.862,44.375,25.235
-32.30291,0.04032,-0.08064,-0.00856,0.23569,-0.97846,27.119,-11.133,44.471,25.211
-31.31176,-0.35605,0.33066,-0.00029,0.25703,-0.97282,26.749,-12.589,44.290,25.273
-30.95705,-0.37148,0.05858,-0.00248,0.26353,-0.96481,26.871,-12.651,43.742,25.244
-29.72747,-0.18129,-0.13602,0.00186,0.27836,-0.96948,26.819,-12.770,44.442,25.235
-29.03068,-0.24477,0.06852,0.01108,0.29226,-0.95372,26.668,-13.155,44.171,25.165
-28.11324,-0.19475,0.17177,-0.01614,0.28256,-0.94781,26.608,-13.739,43.452,25.156
-27.13141,-0.08359,0.11075,0.00179,0.29799,-0.94993,27.095,-14.453,43.778,25.145
-26.26187,-0.06931,0.12550,-0.00268,0.32402,-0.95388,26.892,-14.820,43.299,25.282
-25.68149,-0.15037,0.07790,-0.00108,0.32012,-0.95215,26.983,-15.142,43.618,25.268
-24.49824,-0.29373,0.22956,-0.00140,0.32972,-0.94973,26.681,-15.328,43.192,25.195
-23.59156,-0.16648,-0.05278,0.00085,0.34701,-0.93238,26.666,-16.113,43.062,25.299
-22.62071,-0.56405,0.25881,-0.01774,0.36118,-0.93158,26.701,-16.143,43.197,25.207
-21.65343,-0.23943,0.09238,0.01220,0.33679,-0.93521,26.452,-16.535,42.735,25.360
-20.76900,-0.24055,0.03724,0.00712,0.35605,-0.93814,27.268,-16.599,42.863,25.353
-19.73496,-0.34189,0.01098,0.00963,0.36185,-0.92078,26.643,-17.537,42.483,25.248
-18.38958,-0.02480,0.18496,0.00547,0.35196,-0.92569,26.810,-17.433,42.408,25.278
-17.30728,0.07469,0.10079,-0.00637,0.39414,-0.92794,26.670,-17.960,42.575,25.264
-16.24378,-0.18653,0.21162,0.00443,0.38874,-0.91364,27.013,-17.808,42.236,25.275
-15.33253,-0.24215,0.02257,0.01706,0.38206,-0.91558,26.969,-17.861,42.266,25.239
-14.13574,-0.62770,0.01536,0.01091,0.38812,-0.91775,27.459,-18.531,42.060,25.223
-13.25198,-0.35024,-0.08430,0.00435,0.39712,-0.93397,27.003,-18.239,42.013,25.283
-11.69696,-0.35716,0.17219,0.00148,0.39649,-0.92334,26.902,-18.081,42.017,25.247
-10.76412,-0.25893,0.09965,-0.00301,0.40161,-0.91388,26.659,-18.507,42.468,25.198
-9.47057,-0.15496,0.21746,-0.00611,0.40559,-0.90732,26.390,-18.406,41.967,25.222
-8.23902,-0.38101,0.40038,-0.00067,0.40959,-0.89664,27.058,-19.135,41.943,25.221
-7.06278,-0.25314,0.17461,0.00876,0.43142,-0.92693,27.381,-18.940,41.789,25.216
-6.07338,-0.04084,-0.03419,0.00521,0.41443,-0.92157,26.905,-19.167,41.508,25.281
-4.30101,-0.14640,0.19471,-0.00587,0.41118,-0.91101,26.817,-19.362,41.657,25.363
-3.25995,-0.36645,-0.05009,-0.01391,0.41279,-0.90249,26.729,-19.597,41.827,25.266
-2.06007,-0.22198,0.12449,-0.01055,0.40708,-0.91312,26.603,-19.671,41.617,25.215
-1.07919,-0.23543,0.18040,-0.00394,0.42898,-0.90388,26.897,-19.585,41.752,25.274
0.06061,28.21458,0.05333,0.00520,-0.01845,-1.00347,26.375,-1.237,45.747,25.260
0.35310,27.85250,0.32541,-0.00089,-0.00269,-1.00617,26.221,-1.551,46.217,25.278
0.36074,27.97689,-0.01400,0.01884,-0.00726,-0.99911,26.039,-1.262,46.286,25.270
0.47070,28.22506,-0.08415,0.01969,-0.00973,-1.00115,25.110,-1.333,46.631,25.278
0.59593,27.95943,0.28195,0.03513,-0.00286,-0.99219,25.291,-1.679,46.305,25.193
0.22100,27.90384,0.40089,0.05177,0.00273,-0.98326,24.755,-1.060,46.970,25.261
0.55236,27.66247,0.14280,0.05569,0.00208,-1.01157,24.324,-1.168,47.177,25.185
0.42031,27.40086,0.12895,0.07144,-0.00664,-1.00930,23.890,-1.750,47.460,25.346
0.40562,27.29410,0.37416,0.08640,0.01822,-1.00392,23.259,-1.079,47.117,25.243
0.36001,27.12635,0.29008,0.09367,0.00557,-0.99567,22.987,-1.010,47.976,25.208
0.41744,26.65919,0.16983,0.10616,-0.00201,-1.00267,22.257,-1.343,48.073,25.236
0.26029,26.49869,0.15399,0.11182,0.01754,-0.97929,22.145,-1.115,48.390,25.308
0.29628,25.88506,0.25944,0.11719,0.00488,-0.98898,21.462,-1.328,48.565,25.237
0.23277,25.68759,0.18965,0.12036,0.01390,-0.98573,20.845,-1.143,48.868,25.410
0.27938,25.36709,-0.07345,0.13781,0.00383,-0.98880,20.531,-1.005,49.106,25.314
0.40434,24.96501,0.26475,0.14101,-0.02023,-1.00359,20.733,-0.867,48.784,25.206
0.30496,24.36408,0.09191,0.16475,-0.00500,-0.99492,19.650,-1.149,48.738,25.279
0.30371,24.36910,0.21870,0.16306,-0.01125,-0.98705,19.662,-1.114,49.219,25.253
0.17484,23.29179,-0.03743,0.17565,0.00640,-0.97673,19.274,-1.143,49.282,25.162
0.37673,23.06801,0.03864,0.16776,-0.00054,-0.97713,19.005,-1.443,49.480,25.244
0.04832,22.79544,0.03295,0.18825,-0.00633,-0.97678,18.737,-1.135,49.691,25.215
0.30245,21.95327,0.28791,0.20085,-0.00384,-0.98122,17.885,-1.527,49.556,25.189
0.05893,21.61014,-0.01935,0.19858,-0.02126,-0.97931,17.514,-1.356,50.027,25.243
0.39487,20.99691,0.20218,0.19993,-0.00009,-0.98036,17.508,-1.344,50.115,25.276
0.26284,20.50008,0.07012,0.20828,-0.00641,-0.98556,17.061,-1.249,49.962,25.292
0.48225,19.78944,-0.16030,0.22420,-0.01567,-0.98257,16.605,-0.816,49.525,25.173
0.24269,19.23879,-0.11482,0.22062,0.00970,-0.96684,16.165,-0.947,50.267,25.205
0.24298,18.38400,-0.03181,0.23715,0.00808,-0.98388,16.166,-1.461,50.323,25.266
0.50207,17.79913,0.16731,0.25274,0.01292,-0.96242,15.879,-1.073,50.841,25.288
0.24832,17.12547,0.19162,0.23455,-0.00462,-0.95566,15.111,-1.073,50.595,25.300
0.23342,16.28271,0.13799,0.24640,0.01239,-0.96642,15.323,-1.449,50.744,25.376
0.34176,15.50439,0.30080,0.25313,-0.01031,-0.97545,14.540,-1.069,50.458,25.209
0.29420,14.99402,0.26352,0.27202,-0.00266,-0.95690,14.377,-0.772,50.896,25.266
0.11177,14.31892,0.05982,0.26224,-0.00657,-0.96851,14.448,-1.093,50.819,25.347
0.16269,13.44417,-0.06925,0.27634,0.00459,-0.96126,14.214,-1.054,50.988,25.184
0.48162,12.87860,0.29856,0.27420,0.01573,-0.95910,14.157,-1.029,51.284,25.174
0.23109,11.89727,0.09415,0.27754,0.01203,-0.96436,13.730,-1.106,50.918,25.139
0.07078,10.97032,0.46016,0.27858,-0.00019,-0.94210,13.465,-1.073,51.100,25.213
0.22132,10.11311,0.12888,0.28209,-0.00395,-0.95556,13.572,-0.610,50.888,25.269
0.20265,9.26475,-0.12804,0.30511,-0.00341,-0.94895,12.838,-1.786,51.533,25.175
0.19494,8.69766,0.14342,0.29287,0.01068,-0.95796,13.147,-1.509,51.499,25.228
0.37681,7.56053,0.00798,0.29489,0.00734,-0.95680,12.853,-1.318,51.505,25.183
0.09851,7.02369,-0.19419,0.31338,-0.00012,-0.95058,12.759,-1.364,51.332,25.359
0.53300,5.84101,0.31598,0.29244,-0.00175,-0.95220,12.876,-1.546,51.490,25.237
0.10423,5.22771,0.06754,0.28769,0.00637,-0.96625,12.373,-1.482,51.046,25.312
0.44524,3.97688,0.09619,0.30588,0.01085,-0.94856,12.082,-1.523,51.433,25.296
0.25989,3.22979,0.20644,0.30898,-0.02104,-0.95399,12.523,-1.571,51.499,25.196
0.38484,2.31396,-0.11227,0.30946,-0.00082,-0.93931,12.472,-1.597,51.375,25.308
0.47729,1.83442,0.42298,0.30277,0.00311,-0.93204,12.545,-1.368,50.920,25.181
0.44841,0.65198,0.10251,0.30423,-0.00688,-0.94617,12.196,-1.092,50.896,25.349
0.52682,-0.05941,-0.17953,0.31614,-0.01147,-0.94762,12.486,-0.932,51.489,25.353
0.37478,-1.22923,0.05083,0.30902,0.00671,-0.95961,12.407,-1.206,51.191,25.214
0.27928,-1.94956,0.10080,0.31446,-0.01289,-0.96301,11.967,-0.923,51.266,25.263
0.43877,-2.78242,0.04991,0.29627,-0.00287,-0.96372,12.247,-1.392,51.365,25.271
0.29541,-3.66850,0.55553,0.29190,0.01941,-0.95960,11.978,-1.440,51.465,25.272
0.25700,-4.73004,0.01606,0.31007,0.01004,-0.95429,12.215,-1.294,50.690,25.259
0.40744,-5.57346,0.05429,0.31269,0.00251,-0.94966,12.593,-1.164,51.577,25.194
0.34532,-6.73033,0.06693,0.31784,-0.01028,-0.96219,12.547,-0.984,51.397,25.236
0.60464,-7.26024,0.30077,0.31236,-0.00786,-0.96602,12.812,-1.153,51.211,25.277
0.33493,-7.87408,-0.32160,0.30730,0.00207,-0.95586,12.561,-0.892,50.884,25.269
0.52063,-9.20550,0.17741,0.29684,0.00341,-0.95942,13.093,-0.940,51.067,25.368
0.17954,-9.89938,0.31039,0.28957,-0.00750,-0.96020,13.481,-1.002,50.874,25.171
0.57384,-10.59164,0.06661,0.28070,-0.01658,-0.96821,13.347,-1.323,51.478,25.311
0.26117,-11.58818,0.32353,0.28136,0.02115,-0.95795,13.114,-1.710,50.839,25.337
0.31293,-12.63365,0.03624,0.27813,0.01096,-0.95641,13.616,-1.124,51.531,25.319
0.23878,-12.95365,0.29979,0.29491,0.00230,-0.96366,13.953,-1.319,50.961,25.226
0.35351,-14.05979,0.25660,0.27822,-0.01321,-0.95637,13.948,-0.847,51.118,25.321
0.43867,-14.76928,-0.18157,0.26821,-0.01018,-0.96214,13.953,-1.005,50.935,25.203
0.20530,-15.30656,0.26277,0.26399,-0.00555,-0.96373,14.517,-1.334,50.389,25.269
0.22717,-16.13173,-0.17207,0.26361,-0.00449,-0.96580,15.211,-0.812,50.836,25.217
0.33678,-16.79423,0.17040,0.25256,0.00656,-0.96261,15.414,-0.994,50.422,25.252
0.34811,-17.48761,0.05624,0.24561,-0.00265,-0.97362,15.498,-0.973,50.959,25.320
0.29115,-18.05207,-0.08457,0.24303,-0.00447,-0.97525,16.187,-1.305,50.493,25.298
0.34619,-19.12230,0.17921,0.23074,-0.00085,-0.97255,16.113,-1.097,49.962,25.280
0.61462,-19.86126,-0.00894,0.22150,-0.01589,-0.98853,16.077,-0.913,50.154,25.223
0.32481,-20.13963,0.20280,0.22066,0.02113,-0.97331,16.754,-1.333,49.930,25.212
0.15650,-20.74850,0.15429,0.20836,-0.00281,-0.96849,16.932,-1.191,50.111,25.295
0.23657,-21.79843,-0.16258,0.20909,-0.00461,-0.98123,16.902,-1.400,49.957,25.273
0.18818,-22.17896,0.41906,0.19692,-0.00087,-0.99075,17.492,-1.269,49.521,25.276
0.17657,-22.67276,0.01027,0.17808,-0.01263,-0.98056,17.794,-1.246,49.649,25.288
0.47187,-23.19158,-0.04283,0.18517,0.00685,-0.98576,18.408,-1.249,49.517,25.304
0.28938,-23.51455,0.19215,0.19287,-0.00577,-0.97525,19.005,-1.506,49.561,25.303
0.25863,-24.46197,0.24185,0.15717,-0.00138,-1.00006,19.340,-1.659,49.131,25.245
0.34896,-24.77937,0.19891,0.16311,-0.00290,-0.98952,18.897,-0.799,49.073,25.306
0.37745,-24.98863,0.23332,0.14565,0.00815,-0.97597,20.036,-1.239,49.220,25.294
0.29375,-25.46384,0.14877,0.14824,-0.00403,-0.98353,20.882,-1.052,48.799,25.302
0.28368,-25.97131,0.01620,0.12241,0.00769,-0.99489,20.339,-1.072,48.739,25.290
0.14882,-26.33655,0.39429,0.11961,0.00365,-0.99124,20.871,-1.569,48.600,25.259
0.30765,-26.35254,-0.11345,0.11491,0.00937,-0.98657,21.567,-1.083,48.453,25.231
0.12835,-26.69310,0.13803,0.12077,-0.00515,-0.98637,22.267,-1.077,48.119,25.228
0.30621,-27.18453,0.13346,0.08856,0.00197,-0.98103,22.266,-1.067,47.448,25.301
0.38932,-27.50827,0.21268,0.08837,0.01447,-0.99526,23.012,-1.236,47.443,25.406
0.37739,-27.56017,0.14272,0.06631,-0.01088,-1.01035,23.674,-1.074,47.437,25.205
0.22536,-27.82897,-0.05507,0.07546,-0.00643,-0.99991,23.751,-1.747,47.514,25.279
0.01762,-28.05215,0.07990,0.05056,0.00279,-0.98863,24.296,-1.553,46.928,25.179
0.38009,-28.29597,0.17132,0.05553,0.00703,-0.99713,24.579,-1.605,47.422,25.388
0.33599,-28.20667,-0.04253,0.03626,0.00021,-1.00394,25.515,-1.122,46.497,25.258
0.38652,-28.60761,0.20233,0.02924,0.00719,-0.99672,25.346,-1.367,46.768,25.300
0.43936,-28.34946,0.11641,0.01097,0.01439,-1.00135,26.263,-1.222,46.463,25.236
0.15257,-28.52229,0.05764,0.01516,0.00275,-1.01232,26.186,-1.550,45.759,25.275
0.25686,-28.31935,0.19276,-0.00680,0.01030,-0.99271,26.849,-1.291,46.185,25.320
0.18875,-28.45614,0.00508,-0.00271,-0.00823,-1.00505,27.072,-1.080,45.190,25.281
0.02740,-28.31100,-0.27285,-0.01831,0.00200,-1.00380,27.924,-0.918,45.468,25.338
0.39911,-28.42579,0.16951,-0.02075,-0.00042,-1.01877,27.649,-0.749,44.738,25.251
0.49168,-28.13688,0.21378,-0.03821,-0.01698,-0.98148,28.390,-0.928,44.719,25.255
0.30994,-28.17152,0.37764,-0.05947,0.00317,-0.98434,28.770,-1.191,44.127,25.364
0.17996,-27.89663,-0.16499,-0.06573,0.00178,-1.00718,29.240,-1.535,44.178,25.223
0.19091,-27.77355,-0.15566,-0.06343,-0.00653,-0.98488,29.575,-1.421,43.915,25.333
-0.01534,-27.70229,0.31865,-0.08637,-0.00976,-1.00968,30.017,-1.514,43.730,25.208
0.27849,-27.40052,0.03867,-0.08944,-0.00771,-1.00328,30.802,-1.094,43.452,25.336
0.41055,-27.15633,0.21694,-0.09889,0.01396,-0.99362,30.891,-0.809,43.280,25.249
0.42175,-27.01477,0.09288,-0.10481,0.00112,-0.99567,31.019,-1.100,42.940,25.251
0.34666,-26.43486,0.20386,-0.11256,0.00380,-0.98849,31.811,-1.086,42.400,25.302
0.24990,-26.25657,0.18133,-0.12397,-0.00541,-0.98775,31.805,-1.085,41.921,25.351
0.42315,-25.73385,0.13267,-0.14399,-0.01335,-0.99048,32.259,-1.118,42.240,25.306
0.20600,-25.31747,0.03852,-0.13894,0.00478,-0.99400,33.066,-1.285,41.715,25.350
0.37806,-25.12173,0.07768,-0.14892,-0.00355,-0.99263,33.280,-1.248,41.872,25.278
0.19686,-24.59371,0.26967,-0.16387,0.00894,-0.98718,33.475,-1.381,41.176,25.287
0.50729,-24.16264,-0.10436,-0.17637,-0.00543,-0.98077,33.478,-1.445,40.825,25.286
0.33689,-23.79774,0.08293,-0.16805,0.00314,-0.98139,33.828,-1.270,40.324,25.316
0.47664,-23.12913,0.07314,-0.19028,-0.00095,-0.96966,34.146,-1.145,40.602,25.283
0.15351,-22.51039,0.35901,-0.19014,-0.00031,-0.98193,34.092,-1.121,39.996,25.243
0.53500,-22.14875,0.14459,-0.20883,0.00269,-0.99128,34.969,-1.171,40.047,25.224
0.28430,-21.55249,0.23807,-0.22011,-0.00314,-0.97461,35.237,-1.584,39.892,25.292
0.49979,-20.89453,0.13534,-0.21183,-0.00351,-0.95927,35.397,-1.115,39.208,25.262
0.32798,-20.32033,-0.01235,-0.22003,-0.00333,-0.95841,35.680,-1.365,39.283,25.377
0.10936,-19.39107,-0.02884,-0.23094,-0.01113,-0.97765,35.631,-1.352,38.811,25.283
0.38810,-18.87846,0.11822,-0.22311,0.00134,-0.96272,36.252,-1.360,38.328,25.151
0.28510,-18.41608,0.12647,-0.22946,-0.01808,-0.96546,36.072,-1.663,39.006,25.329
-0.09599,-17.34833,0.09592,-0.23375,-0.00741,-0.96777,36.702,-1.718,38.264,25.331
0.20649,-16.76041,0.22864,-0.25126,0.00907,-0.96275,37.288,-1.135,38.284,25.285
0.45156,-16.06124,0.19624,-0.25099,-0.00254,-0.96900,36.635,-1.143,37.532,25.254
0.29246,-15.27187,0.21624,-0.25845,-0.00145,-0.96277,37.054,-0.815,38.038,25.263
0.16368,-14.78682,-0.00920,-0.27458,0.00243,-0.96221,37.670,-1.155,37.502,25.278
0.58405,-13.59964,0.01130,-0.26942,-0.00207,-0.96445,37.489,-1.487,37.207,25.341
0.55643,-12.91441,0.15149,-0.26551,-0.00063,-0.96206,37.458,-0.903,37.362,25.246
0.16141,-11.95986,0.16390,-0.28906,-0.00247,-0.95526,38.209,-0.998,37.355,25.331
0.41791,-11.26550,0.05496,-0.28902,-0.01130,-0.95260,37.905,-1.136,36.831,25.278
0.28936,-10.47988,0.37335,-0.29132,-0.00624,-0.94221,38.233,-1.339,36.585,25.338
0.33702,-9.78356,-0.06340,-0.29753,0.00891,-0.95328,38.582,-1.625,36.395,25.311
0.45064,-8.64502,0.16014,-0.30149,-0.00608,-0.96641,38.775,-1.238,36.264,25.353
0.55200,-8.15603,0.05213,-0.29480,-0.01354,-0.95084,38.707,-1.154,36.495,25.297
0.37593,-7.04337,0.14684,-0.28662,0.00686,-0.95617,38.615,-1.369,36.526,25.436
0.31178,-6.34329,0.20289,-0.30107,-0.00133,-0.94828,38.337,-1.418,36.196,25.301
0.37988,-5.43023,0.30962,-0.31212,-0.00544,-0.94417,38.793,-1.153,36.366,25.206
0.57369,-4.61340,-0.06120,-0.29563,0.01438,-0.94020,38.765,-1.026,36.134,25.230
0.73440,-3.91267,0.43987,-0.30690,0.00212,-0.95385,39.224,-0.753,35.994,25.267
0.24525,-2.78023,-0.20397,-0.32055,0.00008,-0.94903,38.790,-1.308,35.478,25.279
0.32673,-1.95153,0.21612,-0.32401,0.01252,-0.96814,39.066,-1.313,36.125,25.327
0.32159,-1.15514,-0.11987,-0.30959,-0.00585,-0.95865,38.673,-1.198,35.757,25.343
0.26873,-0.44357,0.01149,-0.30881,-0.01465,-0.94054,38.898,-1.234,35.889,25.333
0.44829,0.55401,0.02167,-0.29313,-0.01688,-0.95923,38.730,-0.975,35.932,25.316
0.21878,1.60306,-0.01502,-0.31293,-0.00610,-0.95706,38.685,-1.148,35.953,25.260
0.28025,2.50442,0.15196,-0.29623,-0.00210,-0.94892,39.075,-1.450,35.636,25.232
0.41114,3.29333,0.16777,-0.30569,0.00163,-0.94678,38.773,-1.013,36.100,25.232
0.31408,4.43491,0.66833,-0.30570,0.00020,-0.96537,38.855,-1.217,35.858,25.390
0.38153,4.92882,-0.03393,-0.29784,-0.00507,-0.96025,38.349,-1.234,36.212,25.343
0.38604,6.19469,-0.04834,-0.30027,0.00302,-0.96649,38.655,-1.474,36.193,25.261
0.44792,7.04939,0.09695,-0.30481,-0.00973,-0.95090,38.394,-0.968,36.636,25.390
0.62304,7.68492,0.19907,-0.30342,-0.01064,-0.94892,38.180,-0.952,36.101,25.293
0.61034,8.55554,0.20649,-0.29653,0.00685,-0.95780,38.206,-1.447,36.033,25.241
0.45060,9.34499,-0.01340,-0.28503,0.00145,-0.95308,38.081,-1.316,36.628,25.291
0.50089,10.30448,0.35463,-0.28552,-0.00513,-0.95727,38.792,-0.929,36.630,25.340
0.31925,10.96093,0.29967,-0.28093,0.00748,-0.94474,37.957,-1.122,37.043,25.345
0.29391,11.82634,0.41869,-0.28491,0.00372,-0.95591,37.582,-1.038,36.617,25.316
0.53521,12.54181,-0.09792,-0.27647,-0.00016,-0.96011,37.847,-1.129,36.743,25.360
0.02493,13.34798,0.25088,-0.27795,-0.01161,-0.96836,37.508,-0.699,36.901,25.327
0.31992,14.05041,-0.07728,-0.27663,0.00275,-0.95826,37.787,-1.439,36.919,25.336
0.42899,15.10789,-0.15405,-0.25018,0.00105,-0.94888,37.225,-0.852,37.488,25.415
0.27299,15.44507,0.16574,-0.24779,0.01014,-0.96692,37.186,-1.203,38.161,25.360
0.27450,16.54511,0.12690,-0.24193,-0.00303,-0.96714,36.742,-1.591,37.721,25.364
0.44300,16.99084,0.20387,-0.24543,0.00618,-0.97289,36.670,-1.488,38.518,25.335
0.36777,18.16949,0.30685,-0.22827,0.00266,-0.97495,36.565,-1.187,38.361,25.368
0.30335,18.51633,0.14924,-0.24547,0.00429,-0.96617,36.233,-1.135,38.588,25.278
0.25625,18.86548,0.21093,-0.23762,-0.00357,-0.99057,35.811,-1.064,38.918,25.311
0.38594,19.51943,0.26105,-0.22367,0.00025,-0.97193,35.062,-0.844,39.044,25.338
0.29837,20.29865,0.32786,-0.22303,0.00235,-0.98121,35.594,-0.975,39.542,25.338
0.26005,20.95193,0.17988,-0.19663,0.00376,-0.98002,35.247,-0.971,39.731,25.356
0.28979,21.70197,0.07641,-0.19816,0.00461,-0.99065,34.850,-1.132,39.905,25.353
0.00154,21.87170,0.27917,-0.18544,0.01557,-0.98245,34.924,-0.643,39.546,25.229
0.27528,22.44135,0.35728,-0.18574,-0.00560,-0.97311,34.489,-1.346,40.546,25.266
0.24531,23.34191,0.00327,-0.17967,-0.00369,-0.98895,33.382,-1.590,40.674,25.381
0.45275,23.57493,0.11085,-0.18096,-0.00205,-0.98779,33.554,-1.051,40.999,25.340
0.68043,24.19713,-0.16564,-0.17041,-0.00048,-0.99437,33.313,-0.846,41.188,25.253
0.56463,24.52653,0.12214,-0.14907,0.00411,-0.99446,33.058,-0.889,41.745,25.273
0.35239,25.20134,0.09090,-0.15289,-0.00518,-0.98507,32.675,-1.190,41.773,25.300
0.42526,25.56241,0.19387,-0.12916,0.00899,-0.98522,32.635,-1.706,41.989,25.334
0.32972,25.60091,0.11009,-0.13035,0.00270,-0.98681,31.934,-0.934,42.122,25.285
0.36197,26.00873,0.27894,-0.11678,0.00426,-0.98581,31.222,-1.214,42.557,25.223
0.35811,26.35389,-0.08631,-0.09558,0.00100,-1.01236,31.139,-1.281,42.773,25.277
0.18936,26.70783,-0.01490,-0.08921,0.00390,-0.99340,30.737,-1.172,43.089,25.323
0.10886,26.93060,-0.21153,-0.08656,0.01976,-1.00394,30.292,-0.993,43.136,25.265
0.31453,27.18893,0.26028,-0.08178,-0.00482,-0.99906,29.927,-1.125,43.960,25.275
0.17660,27.36291,0.04269,-0.07992,-0.01066,-1.01250,29.690,-1.386,44.335,25.337
0.19674,27.38834,0.06000,-0.06973,-0.00063,-0.98947,29.224,-1.374,43.662,25.244
0.36285,27.68640,0.15834,-0.06053,0.00698,-1.00281,28.436,-1.477,44.260,25.314
0.10018,27.96276,0.12770,-0.03258,0.01149,-1.00159,28.326,-1.056,44.249,25.372
0.34094,27.86477,-0.04032,-0.04002,-0.00248,-0.99588,28.064,-1.777,44.771,25.344
0.62526,27.97605,0.18708,-0.01969,-0.00323,-1.00902,27.420,-1.535,45.316,25.362
0.32163,27.94486,0.28141,0.00786,-0.01398,-0.99547,27.260,-1.120,45.626,25.397
0.33100,28.37727,-0.04697,0.00609,-0.01143,-1.01135,26.905,-1.020,45.557,25.348
0.24105,28.20704,-0.09206,0.01152,0.00229,-0.99827,26.372,-1.230,45.302,25.247
0.49961,28.10277,0.33368,0.02022,0.01350,-1.00092,26.199,-1.317,46.048,25.366
0.13306,28.15760,0.40638,0.02951,0.01103,-1.00385,25.447,-1.141,46.283,25.356
0.48398,27.92896,0.05306,0.02718,0.00333,-1.00206,24.672,-1.501,46.580,25.398
0.40715,27.57427,-0.03192,0.04118,-0.00816,-0.99751,24.921,-0.523,47.318,25.298
0.49099,27.56830,0.39114,0.06295,-0.00396,-0.99055,24.011,-1.357,47.019,25.309
0.03770,27.52538,0.53054,0.05856,0.01082,-1.01123,23.756,-1.408,47.359,25.349
0.15616,27.14149,0.24056,0.07062,0.00992,-0.98667,23.226,-0.845,47.034,25.292
0.43031,27.07361,0.29525,0.09537,0.00032,-0.99065,22.921,-1.567,47.949,25.352
0.33108,26.58388,0.42205,0.08947,0.00058,-1.00091,22.472,-0.916,48.023,25.309
0.47202,26.52251,0.11995,0.10278,-0.00580,-1.00949,22.447,-1.377,47.822,25.282
0.17925,26.23530,0.11708,0.10758,-0.00645,-1.00133,21.918,-1.557,48.317,25.349
0.40523,25.76283,0.10913,0.10565,-0.00013,-0.99620,20.887,-0.838,48.790,25.307
0.40361,25.36395,-0.15347,0.12992,0.00697,-0.99195,20.552,-0.917,48.736,25.268
0.26462,24.90925,-0.01758,0.14822,-0.00434,-0.98875,20.837,-1.367,48.539,25.326
0.28231,24.50685,-0.00676,0.13838,-0.00315,-0.99891,19.710,-0.490,49.581,25.445
0.30384,23.95214,0.21320,0.15101,-0.00221,-0.99470,19.809,-1.227,49.211,25.296
0.32025,23.38088,0.11489,0.16504,0.00333,-0.98963,18.943,-1.180,49.643,25.320
0.61734,22.78989,0.00003,0.17351,-0.01066,-1.00635,18.817,-1.449,49.219,25.321
0.31733,22.56115,0.22291,0.17732,0.00909,-0.97321,18.029,-1.419,49.786,25.264
0.26348,22.14476,0.28026,0.20075,-0.00114,-0.97719,18.134,-0.793,49.682,25.322
0.32044,21.37157,-0.06511,0.17740,0.01176,-0.96433,17.257,-0.988,49.909,25.319
0.44315,20.97363,0.52768,0.21352,-0.00630,-0.98718,17.676,-1.266,49.873,25.337
0.35998,20.56454,-0.01168,0.19500,-0.00445,-0.98332,16.824,-1.616,49.803,25.257
0.49369,19.60977,0.09556,0.23182,-0.00272,-0.97243,16.897,-1.056,49.999,25.278
0.54364,19.16333,0.02231,0.22420,-0.00041,-0.98811,16.438,-0.939,50.082,25.288
0.28814,18.44837,0.43254,0.24028,0.00143,-0.97727,16.018,-1.246,50.051,25.309
0.41617,17.64213,-0.06746,0.23845,-0.00319,-0.98462,15.989,-0.906,50.953,25.308
0.43559,17.29341,0.21131,0.25490,0.00128,-0.97324,15.512,-1.077,50.686,25.386
0.37383,16.36706,0.30677,0.25024,-0.00657,-0.96029,14.576,-0.920,50.807,25.332
0.52132,15.61233,0.17504,0.24543,-0.00987,-0.96287,14.733,-1.486,50.903,25.328
0.25000,14.90567,0.35566,0.27078,0.00042,-0.95988,14.429,-0.750,51.068,25.315
0.37996,14.31108,0.27473,0.27519,0.00548,-0.96090,13.926,-0.834,50.722,25.345
0.34585,13.55910,0.06651,0.26252,0.01174,-0.95677,14.474,-1.211,50.952,25.379
0.19710,12.38409,0.00632,0.27116,0.01425,-0.94053,13.811,-1.177,50.843,25.322
0.40132,11.86971,0.07713,0.27956,-0.00483,-0.96573,13.553,-1.027,51.096,25.308
0.49568,11.01813,0.27352,0.28282,0.01441,-0.94754,13.637,-0.840,50.861,25.422
0.16634,10.20047,0.03799,0.27271,-0.01037,-0.96112,13.394,-1.293,51.301,25.319
0.21113,9.56145,0.31104,0.28933,-0.01290,-0.96535,12.973,-1.181,51.405,25.339
0.39363,8.58187,-0.04704,0.30336,0.01216,-0.95150,13.333,-1.263,51.144,25.404
0.32441,7.57638,0.39748,0.29589,-0.00643,-0.95493,12.269,-0.939,51.511,25.274
0.24929,7.09023,0.27495,0.29697,-0.00134,-0.95085,13.033,-1.006,51.344,25.327
0.58149,6.03518,-0.03477,0.29870,0.01442,-0.96790,12.301,-1.063,51.193,25.280
-0.17552,5.02837,0.30703,0.29572,-0.00918,-0.94656,12.818,-1.420,51.162,25.262
0.34977,4.09083,0.10453,0.28574,0.00733,-0.96701,12.047,-1.260,50.762,25.257
0.20840,3.04787,0.02405,0.30582,0.01363,-0.94486,11.702,-1.253,51.066,25.361
0.29856,2.49341,0.22753,0.30457,-0.01323,-0.95481,12.419,-1.058,51.246,25.372
0.33537,1.36134,0.15597,0.31511,0.01048,-0.95593,12.257,-1.260,50.964,25.355
0.20972,0.67848,0.02987,0.30413,-0.00049,-0.95046,12.327,-1.302,51.235,25.358
0.28695,-0.21685,0.04369,0.30860,0.00659,-0.94456,12.400,-0.897,51.345,25.390
0.30166,-0.95703,0.24327,0.32218,0.00667,-0.94568,12.282,-1.326,51.144,25.383
0.15780,-1.76074,0.16094,0.31334,0.00776,-0.94924,12.205,-1.737,51.390,25.369
0.12996,-2.85206,0.11446,0.31601,-0.01364,-0.95593,12.214,-1.416,51.339,25.238
0.00987,-3.76769,0.21217,0.30004,0.00295,-0.94939,12.461,-1.181,50.855,25.342
0.36913,-4.41798,-0.09470,0.32367,-0.00067,-0.96076,12.314,-0.920,51.280,25.304
0.45321,-5.37124,0.13086,0.31737,0.01689,-0.97213,12.475,-0.737,51.373,25.417
0.43576,-6.60464,0.03517,0.30174,0.01069,-0.95387,12.446,-1.335,51.274,25.353
0.69447,-7.27235,-0.05580,0.30456,0.00218,-0.95266,12.499,-1.082,51.081,25.316
0.26169,-7.96146,-0.08513,0.29642,-0.00212,-0.94887,12.760,-0.972,50.983,25.365
0.39142,-8.94449,0.36471,0.29861,0.00214,-0.94691,13.043,-1.263,51.384,25.456
0.26635,-9.70098,0.15041,0.29206,-0.01509,-0.96172,12.901,-0.841,50.826,25.411
0.20778,-10.65455,0.06959,0.28351,-0.01247,-0.94652,13.553,-0.899,51.308,25.390
0.53619,-11.56371,0.21565,0.29597,0.00282,-0.96015,13.236,-1.266,50.906,25.196
0.42117,-12.02984,0.22418,0.28187,-0.00580,-0.96177,14.004,-1.542,51.541,25.270
0.47925,-13.15665,0.06276,0.25906,0.00759,-0.95764,14.133,-1.324,51.258,25.355
0.32410,-13.91570,0.31601,0.27475,0.00339,-0.97418,14.073,-1.451,50.665,25.254
0.43880,-14.62886,0.13068,0.25925,0.00149,-0.97162,14.303,-1.042,50.900,25.376
0.24869,-15.66140,0.17178,0.25362,-0.00256,-0.97445,14.516,-1.033,50.659,25.286
0.37180,-16.07221,0.13313,0.25917,0.00991,-0.95312,15.014,-1.288,50.761,25.278
0.35174,-16.55991,0.12225,0.25134,-0.00627,-0.95895,15.039,-1.124,50.509,25.287
0.32318,-17.70086,0.02839,0.24112,0.01378,-0.96417,15.474,-1.357,50.669,25.342
0.53329,-18.27579,0.38801,0.23786,0.00072,-0.97457,15.685,-1.445,50.145,25.266
0.22387,-19.05997,0.17319,0.22832,-0.00124,-0.96187,16.147,-1.591,50.443,25.379
0.32864,-19.71738,0.18436,0.22497,0.00213,-0.96924,16.422,-1.323,49.843,25.354
0.33143,-20.23772,0.17882,0.22460,-0.00862,-0.96867,16.733,-1.159,50.162,25.459
0.41775,-20.84386,-0.10822,0.21124,0.00388,-0.98713,16.947,-1.164,50.235,25.275
0.32239,-21.46425,0.13065,0.20961,0.00702,-0.96972,17.980,-1.145,50.041,25.345
0.33813,-22.14157,0.10336,0.19373,-0.01021,-0.97875,17.547,-1.149,49.738,25.376
0.56618,-22.48193,0.07650,0.18842,0.00169,-0.98484,17.965,-0.914,49.757,25.328
0.37816,-23.11175,0.05402,0.18561,-0.00321,-0.98774,18.603,-1.370,49.903,25.290
0.41956,-23.54581,0.18350,0.17803,0.00723,-0.98651,18.711,-1.283,49.917,25.300
0.51190,-24.21744,0.21056,0.17639,-0.00978,-0.99293,19.409,-0.900,49.131,25.440
0.30928,-24.49964,0.32096,0.15332,0.01332,-0.99321,19.562,-1.297,49.711,25.355
0.48029,-24.82084,0.06622,0.15797,-0.00251,-1.00238,19.893,-1.187,48.416,25.294
0.33838,-25.34834,0.22499,0.14198,-0.00526,-0.98521,20.050,-1.023,48.434,25.400
0.21480,-25.56965,0.06604,0.12842,-0.00818,-0.98648,20.500,-1.265,48.755,25.310
0.21286,-26.24538,-0.07361,0.11866,-0.00013,-1.00469,21.219,-1.181,48.522,25.354
-0.00207,-26.64406,0.17622,0.11406,-0.00909,-0.98070,21.946,-1.543,48.258,25.382
0.59226,-27.14203,0.22549,0.10312,0.00127,-0.99674,22.474,-0.713,48.042,25.309
0.73295,-27.04651,-0.03144,0.10590,-0.00163,-0.99796,22.749,-1.631,48.155,25.365
0.40283,-27.34306,-0.11942,0.08136,0.00299,-0.99206,22.897,-1.615,47.656,25.316
0.23441,-27.53423,0.17532,0.06596,-0.00107,-0.99242,23.391,-1.243,47.523,25.298
0.63298,-27.79404,-0.00066,0.05369,-0.01419,-1.00267,24.034,-1.344,47.245,25.306
0.57296,-27.65732,-0.28047,0.05586,0.00390,-0.99436,24.080,-1.320,47.265,25.433
0.08175,-28.25107,0.19848,0.04091,-0.00443,-0.98822,24.713,-1.333,46.996,25.290
0.37445,-28.20382,0.31005,0.04447,0.00109,-1.00079,25.013,-0.894,46.961,25.385
0.35528,-28.49774,-0.07276,0.02592,0.00620,-0.99828,25.828,-1.247,46.014,25.324
0.47504,-28.40163,0.14835,0.01936,-0.00405,-0.99470,25.809,-1.102,46.191,25.279
0.58048,-28.51859,0.25559,0.01457,-0.00020,-1.00364,26.422,-1.333,45.736,25.334
0.09889,-28.64575,0.10855,0.00444,-0.01620,-0.99618,27.132,-0.980,46.041,25.300
0.20466,-28.69200,0.33480,0.00760,-0.01285,-1.00127,26.891,-1.670,45.214,25.434
0.27476,-28.31836,0.22837,-0.02641,0.01067,-1.00856,27.519,-1.089,45.124,25.348
0.47137,-28.19639,-0.14108,-0.02934,0.01010,-0.98693,27.439,-1.392,44.964,25.340
0.45806,-28.19882,0.21149,-0.04128,-0.00143,-0.99176,28.618,-1.116,44.710,25.323
0.23626,-28.12694,0.28535,-0.05724,0.00261,-0.99561,28.832,-1.230,44.581,25.323
0.55850,-28.25544,0.22882,-0.05329,0.01107,-1.01459,29.039,-0.930,43.960,25.361
0.51122,-27.97353,-0.02656,-0.07638,-0.00034,-1.00364,29.720,-1.228,44.013,25.330
0.43258,-27.47910,0.26334,-0.07454,-0.00345,-0.99612,29.753,-1.124,43.844,25.330
0.55882,-27.24671,0.42463,-0.09650,0.00061,-1.00146,30.391,-1.008,43.635,25.362
0.29963,-27.27347,0.12257,-0.09473,0.00503,-0.98781,30.740,-1.369,43.407,25.377
0.09285,-26.58216,0.02746,-0.09973,-0.00263,-0.99390,31.675,-1.655,42.721,25.328
0.30876,-26.55600,0.26862,-0.11196,-0.00378,-0.98127,31.840,-1.421,42.433,25.331
0.38203,-26.22669,0.24186,-0.12869,0.00010,-0.99702,31.842,-0.988,41.876,25.377
0.47330,-25.60722,-0.01092,-0.12364,-0.00087,-0.99034,32.421,-1.530,42.308,25.400
0.25132,-25.50130,0.48343,-0.14376,-0.00059,-1.00290,32.643,-1.069,41.572,25.373
0.39847,-25.05246,0.28048,-0.15230,-0.00068,-0.98866,32.593,-1.056,41.629,25.405
0.41668,-24.56986,0.21169,-0.13743,-0.00882,-0.98241,33.499,-0.990,40.811,25.467
0.54363,-24.12755,0.40390,-0.16622,0.01696,-0.98413,33.199,-1.207,40.787,25.298
0.20167,-23.56306,0.01765,-0.16766,-0.01347,-0.98642,34.136,-1.098,40.496,25.381
0.19472,-23.19979,-0.08311,-0.17315,-0.00323,-0.99095,34.253,-0.860,40.814,25.323
0.62151,-22.56902,0.30264,-0.18433,-0.00613,-0.98701,34.207,-1.191,40.220,25.358
0.16417,-21.93766,0.25152,-0.19757,-0.00499,-0.97730,34.679,-1.131,39.957,25.422
0.62878,-21.15206,0.26277,-0.21051,0.00534,-0.98977,35.192,-1.231,39.488,25.394
0.28531,-20.52931,0.10394,-0.19819,0.00232,-0.98491,35.493,-0.664,39.331,25.374
0.43288,-20.09365,0.24306,-0.23386,-0.00585,-0.97967,36.486,-1.399,39.164,25.505
0.42605,-19.37325,0.25776,-0.23968,-0.00371,-0.97587,35.526,-1.720,39.145,25.466
0.19006,-18.93558,0.34854,-0.22506,-0.01130,-0.97266,36.322,-1.670,38.532,25.343
0.00443,-18.36204,0.14901,-0.23632,-0.01040,-0.96653,36.401,-1.233,38.298,25.263
0.47959,-17.47959,0.12618,-0.24992,-0.01083,-0.96611,36.556,-1.056,38.400,25.346
0.24025,-16.86407,0.17941,-0.26523,0.00150,-0.97952,36.793,-0.623,37.776,25.321
0.28844,-16.14605,-0.06530,-0.25419,0.00510,-0.96237,37.173,-1.268,37.588,25.374
0.42868,-15.49708,0.09844,-0.26206,0.01811,-0.95600,37.615,-1.024,37.479,25.403
0.57872,-14.76140,0.13914,-0.26609,0.00449,-0.95433,37.409,-1.239,38.237,25.349
0.14409,-13.82038,0.04564,-0.27319,-0.00095,-0.98060,37.651,-1.143,37.571,25.382
0.52345,-12.80999,0.20878,-0.27258,-0.00264,-0.95610,37.707,-1.787,37.077,25.431
0.48292,-12.29885,0.01125,-0.28257,-0.00028,-0.96923,37.689,-1.220,37.006,25.403
0.22925,-11.73833,0.10092,-0.27650,-0.01180,-0.96557,37.913,-0.788,37.082,25.358
0.46672,-10.73421,0.12494,-0.30268,-0.00784,-0.96527,37.918,-1.061,36.420,25.426
0.43345,-9.76193,0.30549,-0.28929,-0.00570,-0.96009,38.496,-1.519,36.768,25.365
0.44281,-8.93958,0.01298,-0.28165,-0.00195,-0.95327,38.305,-1.401,36.447,25.351
0.34072,-8.08811,0.05018,-0.28925,0.00480,-0.97127,38.309,-1.293,36.072,25.340
0.44664,-7.17859,-0.11218,-0.31002,0.00201,-0.95649,38.830,-1.363,36.230,25.333
0.30761,-6.29795,0.18733,-0.31070,0.00835,-0.95388,38.812,-1.092,36.023,25.421
0.24102,-5.57484,-0.05298,-0.31609,0.01757,-0.95409,38.668,-0.731,35.627,25.439
0.38688,-4.66395,0.09505,-0.30773,0.01191,-0.94414,38.794,-1.398,36.006,25.327
0.22807,-3.80887,0.01586,-0.31185,-0.00291,-0.96013,39.254,-1.732,36.123,25.412
0.32302,-2.90555,0.15071,-0.30735,0.00558,-0.94715,38.808,-1.447,35.987,25.407
0.46763,-2.07828,0.50134,-0.32228,0.01474,-0.95772,38.910,-0.763,36.345,25.457
0.46945,-1.04722,-0.07842,-0.31839,-0.00061,-0.94625,39.132,-0.988,36.211,25.451
0.35598,-0.53369,0.28135,-0.00176,-0.00386,-0.99866,26.477,-1.257,45.339,25.264
0.24389,-0.00136,0.44726,0.00619,-0.00095,-0.99681,26.326,-1.384,45.482,25.312
0.36654,-0.16185,0.78006,-0.00050,0.00556,-0.99954,26.867,-1.352,45.837,25.402
0.19521,-0.31895,1.18525,-0.01050,-0.00333,-0.99185,26.968,-0.968,45.852,25.363
0.08308,0.08801,1.44348,-0.00709,0.00097,-1.00507,26.774,-1.073,45.524,25.476
0.29954,-0.28800,1.79417,-0.00928,0.00100,-0.98308,26.823,-1.177,45.557,25.335
0.31647,0.12148,2.04969,0.00428,0.00552,-0.99233,26.717,-1.251,45.685,25.405
0.20522,-0.41569,2.09485,0.00312,-0.00880,-0.99383,26.513,-1.318,45.356,25.413
0.12019,-0.52149,2.50742,0.00260,0.00614,-0.99860,26.906,-1.237,45.753,25.452
0.31812,-0.36618,2.98579,0.00774,0.00460,-1.00434,26.920,-0.883,45.583,25.417
0.14927,-0.35885,3.22723,0.00528,-0.00279,-1.00867,26.614,-0.818,45.717,25.427
0.43756,-0.17916,3.43658,-0.00260,0.00905,-0.99927,26.721,-1.221,45.693,25.404
0.22358,-0.48519,3.32878,-0.01177,-0.00803,-1.00462,26.801,-1.266,45.837,25.326
0.63440,-0.23715,3.85587,-0.00077,0.00215,-0.99717,26.662,-1.034,45.312,25.409
0.46547,-0.22742,4.08974,0.00065,0.00743,-0.99937,26.668,-1.963,45.777,25.288
0.51493,-0.33643,4.69081,0.00792,-0.00022,-1.00162,27.286,-1.556,45.627,25.363
0.23772,-0.21847,4.77921,-0.02150,-0.00839,-0.98979,27.013,-0.945,45.284,25.287
0.51199,-0.37769,5.21758,-0.00517,0.00945,-1.00253,26.761,-1.196,45.891,25.355
-0.06609,0.01805,5.35217,0.00216,-0.00728,-1.00092,26.594,-1.789,45.071,25.424
0.38253,-0.33939,5.82260,-0.00179,-0.00353,-1.00824,27.178,-1.134,45.438,25.336
0.30909,-0.10326,5.93818,-0.00135,0.00631,-0.99834,26.726,-1.758,45.610,25.438
0.34713,-0.22454,6.20825,0.00743,-0.00329,-0.98451,26.577,-2.133,45.761,25.406
0.28557,0.27332,6.55337,0.01002,0.00492,-0.99727,26.562,-1.779,45.836,25.323
0.00381,-0.03688,6.86073,0.00360,-0.00222,-0.99346,26.444,-2.022,45.557,25.448
0.30929,-0.31141,7.16748,0.00766,-0.00107,-0.99679,26.468,-2.077,45.468,25.376
0.46433,-0.33301,7.42185,0.00661,-0.00724,-0.98276,26.722,-2.269,45.467,25.413
0.31996,-0.20101,7.24055,-0.00727,-0.01181,-0.99360,26.626,-2.200,45.715,25.450
0.48088,-0.08533,7.75096,-0.00267,0.00027,-1.00798,26.760,-2.110,45.881,25.295
0.30141,-0.20760,8.40382,0.00507,-0.00424,-1.00583,26.950,-2.075,45.479,25.396
0.57858,-0.12806,8.29702,-0.01167,0.00512,-0.99823,27.031,-1.942,45.524,25.393
0.21794,-0.48194,8.63931,0.00655,0.00091,-1.00006,26.394,-2.302,45.703,25.392
0.28944,-0.26624,9.03270,0.00309,-0.01492,-0.99752,26.691,-2.385,45.885,25.428
0.62627,-0.25016,9.32082,-0.00844,0.00527,-1.01089,26.986,-2.760,45.377,25.422
0.46037,0.03421,9.43508,-0.00409,-0.00053,-1.01005,26.558,-2.542,45.388,25.283
0.12756,-0.21016,9.57213,0.00782,0.00649,-0.99481,26.705,-2.628,45.391,25.411
0.47708,-0.21119,9.82321,-0.01338,-0.00172,-1.00162,27.288,-3.094,45.309,25.410
0.27859,0.19841,10.09705,0.01227,-0.00741,-1.00015,26.679,-3.067,46.038,25.422
0.20722,-0.02825,10.41901,0.01074,0.00148,-1.00629,26.758,-3.129,45.264,25.464
0.26073,-0.33529,10.59143,0.00207,-0.01627,-1.00842,26.783,-3.310,45.853,25.427
0.48329,-0.25855,10.95665,-0.00547,0.01502,-0.99564,26.788,-3.008,46.159,25.468
0.09939,-0.18259,11.60087,-0.00170,-0.00064,-1.00584,26.845,-3.290,46.029,25.343
0.30204,-0.19366,11.53308,-0.00255,0.00178,-1.00255,26.740,-3.638,46.007,25.301
0.24954,-0.01049,11.52465,0.01668,-0.00478,-1.00239,26.699,-3.130,45.664,25.429
0.49432,0.01415,12.14083,-0.00488,-0.00980,-1.00556,26.611,-3.649,45.896,25.299
0.25242,-0.10138,12.30649,-0.00089,0.00512,-0.98811,26.988,-3.797,45.229,25.400
0.19638,-0.29272,12.49288,0.00890,-0.00406,-1.00157,26.914,-3.606,45.633,25.411
0.58102,-0.09648,12.84958,0.00383,0.00132,-0.98923,26.575,-3.668,46.227,25.357
0.34797,0.01381,13.40207,0.00671,0.00309,-1.00063,26.214,-4.158,45.969,25.374
0.30870,-0.18969,13.35445,-0.00367,-0.01757,-0.99676,26.632,-3.987,45.599,25.432
0.22074,0.00002,13.75049,0.00773,-0.00184,-1.01808,26.358,-4.604,45.710,25.419
0.65778,-0.32430,13.80578,-0.01304,0.02198,-0.99503,26.930,-4.387,45.623,25.387
0.00568,-0.33529,14.12387,0.00232,0.00929,-0.99789,26.438,-4.618,45.541,25.492
0.38073,-0.22557,14.62107,0.00470,0.00372,-1.00916,26.820,-4.816,45.677,25.338
0.59194,-0.13777,14.57206,-0.00799,-0.00390,-0.99807,26.068,-4.447,45.939,25.396
0.40571,-0.06930,14.97386,0.00207,-0.00488,-1.00303,26.535,-5.299,45.788,25.339
0.37595,-0.22148,15.06577,-0.01438,0.00369,-0.99807,26.556,-4.836,45.487,25.461
0.35451,-0.09532,15.22746,-0.00565,0.00230,-0.99778,26.504,-4.721,45.294,25.405
0.14259,0.04070,15.64950,0.01242,0.01299,-1.00501,26.387,-4.816,45.507,25.396
0.29279,-0.38802,16.15183,0.00572,-0.00308,-1.01072,26.430,-5.135,46.146,25.507
0.38012,0.02504,16.12483,0.00749,0.00179,-1.00405,26.822,-5.491,45.540,25.359
0.48283,-0.10402,16.44835,0.00136,-0.01119,-0.99003,26.589,-5.473,45.476,25.367
0.44620,-0.33224,16.66737,0.00150,0.00340,-0.99221,26.591,-5.647,45.478,25.392
0.55276,-0.18659,17.07378,-0.01126,0.01219,-1.00801,26.008,-6.085,45.447,25.484
0.20496,-0.15623,17.01366,-0.01293,0.00360,-0.99865,26.030,-5.743,45.485,25.316
0.50484,-0.28360,17.10746,-0.00457,-0.00473,-1.00056,26.002,-5.867,45.820,25.393
0.61772,-0.19438,17.57795,-0.00103,0.00000,-0.98999,26.144,-6.082,45.524,25.375
0.20855,-0.44052,17.82788,-0.01017,0.00737,-0.99270,26.159,-6.268,45.822,25.457
0.19371,-0.15802,18.15317,-0.00195,0.00313,-1.00465,26.762,-6.383,45.645,25.475
0.32863,-0.16978,18.32713,0.01233,-0.00264,-0.98409,26.422,-6.496,45.911,25.463
0.42040,-0.19733,18.67069,0.00291,0.00674,-1.00809,26.524,-6.800,46.069,25.437
0.34342,-0.10445,18.55122,-0.01422,-0.00770,-0.98986,25.916,-7.197,45.941,25.433
0.23994,-0.22764,18.84325,0.00685,0.00366,-1.00745,25.744,-7.616,45.840,25.443
0.38218,-0.35161,18.95537,0.00634,-0.02119,-0.99605,25.918,-7.481,46.256,25.441
0.37902,-0.23794,19.15447,-0.00920,-0.01391,-1.00094,25.653,-7.557,45.604,25.438
0.36876,-0.25376,19.57016,-0.00775,0.00323,-1.00004,26.457,-7.430,45.748,25.468
0.18121,-0.30525,19.60530,0.00640,0.00564,-1.00801,26.162,-7.778,45.435,25.402
0.31570,0.06316,20.01201,0.00577,0.00059,-0.98634,25.669,-7.824,45.700,25.386
0.36370,0.02331,20.36928,-0.00518,-0.00568,-0.99239,26.112,-8.388,45.486,25.377
0.18006,-0.12497,20.52401,-0.00367,-0.01346,-1.00324,25.472,-8.190,45.827,25.441
0.32010,-0.09329,20.84620,0.00410,0.01042,-1.00110,25.408,-8.861,46.115,25.351
0.42575,-0.21259,20.91399,0.01014,0.01193,-1.00560,25.690,-8.668,45.354,25.444
0.42978,-0.22505,21.37466,-0.01330,0.00617,-1.00424,25.328,-8.705,45.671,25.388
0.60641,-0.41270,21.19366,-0.00602,0.00243,-1.00009,25.514,-9.297,45.458,25.429
0.07941,-0.13162,21.54376,0.00883,0.00338,-0.99619,25.527,-9.795,45.798,25.405
0.50951,-0.34277,21.65346,0.00845,-0.00624,-0.99409,25.078,-9.437,45.807,25.406
0.30984,-0.08900,21.72310,-0.00669,-0.01352,-1.00742,25.150,-9.500,45.636,25.442
0.52107,-0.00454,22.18846,-0.02396,0.00237,-0.99061,24.974,-9.935,45.867,25.438
0.43822,-0.13865,22.15602,0.00623,-0.00428,-0.98264,25.632,-9.989,46.031,25.381
0.41460,-0.14091,22.79116,-0.01138,0.01701,-0.99705,25.447,-10.221,45.710,25.410
0.36699,-0.24978,22.97331,0.01826,-0.01171,-1.00561,24.607,-10.389,45.668,25.439
0.27154,-0.49868,22.93003,0.00291,-0.00131,-0.98406,25.406,-10.530,45.875,25.447
0.58416,-0.09305,23.27057,-0.00705,-0.00642,-1.00029,24.721,-10.918,45.767,25.339
0.21488,0.09328,23.17990,0.00755,0.00192,-1.00672,25.047,-11.195,45.750,25.407
0.33741,-0.23419,23.80058,0.00589,0.01121,-1.00418,24.753,-10.932,45.860,25.342
0.32970,-0.12228,24.17376,-0.01381,0.00830,-1.01041,24.778,-11.263,45.541,25.405
0.41814,-0.07955,24.10546,0.00780,-0.00985,-1.00574,24.236,-11.419,45.791,25.456
0.36415,-0.09612,24.05541,0.00134,-0.00586,-0.99529,24.401,-11.633,46.094,25.485
0.35385,-0.34339,24.65613,-0.00136,-0.00208,-1.00338,24.210,-11.790,45.993,25.469
0.27758,-0.46823,24.45831,0.00147,-0.00823,-0.99944,24.351,-11.825,45.177,25.414
0.36088,-0.27200,24.94545,-0.00617,-0.00329,-0.99274,24.002,-12.135,45.870,25.399
0.33132,-0.35542,25.18378,-0.00624,-0.00880,-0.99440,24.226,-12.273,45.272,25.334
0.24842,-0.30765,25.30572,-0.00098,-0.00250,-1.01419,24.371,-12.406,46.065,25.376
0.14316,-0.29139,25.38674,-0.00089,0.00149,-0.99557,23.457,-12.921,45.759,25.510
0.46396,-0.29167,25.77778,0.01270,0.00202,-1.00080,24.425,-12.933,45.903,25.451
0.26274,-0.21170,25.88754,0.00548,0.00085,-1.00597,23.711,-13.078,45.779,25.350
0.51732,-0.03913,26.10958,0.00334,0.01145,-0.99427,23.640,-13.661,46.170,25.431
0.28193,-0.27271,26.28841,-0.01413,0.00374,-0.98975,23.423,-13.396,45.647,25.422
0.33480,-0.12020,26.48588,0.01164,-0.00653,-0.99881,23.937,-13.439,45.435,25.401
0.50486,-0.32150,26.69895,0.00149,-0.00800,-0.99985,23.056,-13.773,45.840,25.446
0.49913,-0.24344,26.90566,0.00764,-0.01059,-1.00444,22.930,-13.802,45.812,25.420
0.49580,0.04229,26.96646,0.00039,0.00699,-0.99141,22.638,-14.331,45.535,25.409
0.36248,-0.33363,27.21820,0.00673,0.00412,-0.99428,22.673,-14.699,46.084,25.427
0.35845,-0.48679,27.33332,-0.00196,-0.00407,-1.00576,22.702,-15.088,46.196,25.303
0.41162,-0.18540,27.59986,-0.00737,0.00021,-1.00475,22.646,-15.148,45.084,25.476
0.50288,-0.18171,27.96121,0.01267,-0.01326,-0.99893,22.272,-15.271,45.624,25.477
0.25707,0.10580,27.93643,-0.00871,-0.00578,-1.00510,22.296,-15.510,45.534,25.421
0.17087,-0.37594,28.08874,-0.00074,-0.01826,-0.99566,22.595,-15.775,45.782,25.405
0.07120,-0.26304,28.54085,0.00051,0.00175,-0.99758,22.309,-15.830,45.848,25.498
0.21926,-0.25159,28.72441,0.00337,0.00412,-0.99382,21.783,-16.064,45.306,25.344
0.30722,0.05482,28.88384,-0.00782,-0.00384,-0.98948,21.644,-16.089,45.346,25.409
0.42624,-0.17965,28.91526,-0.00644,-0.00030,-0.99630,21.746,-16.717,45.724,25.383
0.37766,-0.41899,29.06314,0.01431,0.00821,-1.00860,21.346,-16.572,45.858,25.281
0.57719,-0.07313,29.34251,0.00382,0.00499,-1.00501,21.403,-16.846,45.433,25.425
0.28192,-0.33486,29.39057,-0.00001,-0.00724,-1.00287,20.965,-16.809,45.586,25.485
0.04486,-0.27957,29.84675,-0.01669,0.01427,-1.00509,20.900,-17.658,45.432,25.408
0.40529,-0.44131,29.66761,-0.00304,-0.00105,-0.99852,20.662,-17.182,45.507,25.359
0.39335,-0.03280,30.34716,-0.00025,-0.00372,-0.99662,20.679,-17.625,45.416,25.452
0.47924,-0.21544,30.28498,0.00428,-0.00043,-0.98195,20.456,-17.825,45.657,25.487
0.57257,-0.15698,30.33399,0.01121,0.01465,-1.00269,20.705,-18.415,46.055,25.430
0.18042,-0.20965,30.68619,-0.00943,0.00079,-1.00209,20.674,-18.080,45.934,25.499
0.40489,-0.27778,30.42620,0.00749,0.01070,-0.99607,20.076,-18.327,45.013,25.393
0.42111,-0.02563,31.13377,0.00159,0.00404,-1.00569,19.649,-19.089,45.188,25.370
-0.00451,-0.25653,30.78327,0.00872,-0.00142,-1.00257,19.733,-19.018,45.687,25.412
0.23710,-0.17807,31.24191,0.00900,0.00617,-0.98826,19.419,-18.964,45.667,25.479
0.24435,-0.05683,31.28782,-0.00976,-0.00387,-0.99908,19.555,-18.919,45.833,25.495
0.60003,-0.27463,31.54282,-0.00544,-0.00232,-0.99766,18.987,-19.512,45.888,25.373
0.42956,-0.27668,31.68493,-0.00427,0.01182,-0.99588,18.877,-19.391,45.630,25.467
0.46770,0.06795,31.90094,0.00600,-0.00203,-1.00593,18.286,-19.680,45.493,25.493
0.14869,-0.15413,32.02816,-0.00191,0.00401,-1.00680,18.240,-19.927,45.633,25.391
0.44992,-0.46821,32.23097,0.01197,-0.01505,-1.00036,18.228,-20.176,45.730,25.397
0.31286,-0.21235,32.49463,0.00777,0.00171,-0.99596,17.779,-20.379,45.461,25.482
0.57792,-0.17078,32.28161,-0.01173,0.00836,-0.99958,17.586,-20.123,46.148,25.501
0.29175,-0.06218,32.66028,0.00154,0.00321,-1.00823,17.313,-20.737,45.319,25.493
0.34765,-0.07503,32.68696,0.01026,-0.00659,-0.97978,17.633,-21.088,45.943,25.403
0.12251,-0.09676,33.10750,-0.00231,0.00943,-0.99829,17.565,-21.213,46.285,25.412
0.47791,0.16109,33.11842,-0.00422,-0.01013,-0.98242,17.087,-21.183,45.746,25.349
0.26283,-0.19687,33.35674,0.00002,0.00502,-1.00454,16.805,-21.227,45.733,25.459
0.35754,0.00778,33.50764,-0.00639,-0.00728,-0.99896,16.036,-21.417,45.527,25.334
0.21123,-0.46665,33.50886,-0.01307,0.00346,-0.99762,16.184,-21.789,45.779,25.333
0.45312,-0.43988,33.59594,0.00365,0.00834,-0.99597,15.913,-22.154,45.762,25.507
0.36611,-0.36307,33.73059,0.01258,-0.01026,-1.00855,15.999,-22.171,45.806,25.465
0.38868,-0.06435,33.91287,0.00986,-0.00585,-0.99705,15.091,-21.846,46.317,25.468
0.27098,-0.17767,34.06071,-0.01382,-0.00324,-0.99927,15.148,-22.416,45.994,25.372
0.48111,-0.20991,34.19380,-0.00356,-0.00886,-0.99741,15.186,-22.531,45.730,25.399
0.33845,-0.00761,34.25714,-0.00873,-0.00735,-0.99762,14.463,-22.586,45.469,25.431
0.44324,-0.63113,34.47289,-0.00156,-0.00208,-1.00407,14.124,-22.279,45.561,25.424
0.44305,-0.44331,34.71656,0.00070,-0.00081,-0.99601,13.928,-22.912,45.993,25.394
0.34801,-0.08391,34.82619,0.01418,-0.00484,-1.00133,13.873,-23.039,45.541,25.506
0.23375,-0.29984,35.28727,0.00299,0.00003,-0.99665,13.969,-22.996,45.523,25.404
0.28805,0.17601,35.14753,-0.00555,0.00694,-1.01350,13.332,-23.667,45.605,25.449
0.29108,-0.15942,35.54152,-0.00165,0.00579,-1.00530,13.193,-23.517,46.075,25.407
0.32179,-0.20507,35.57950,-0.00189,-0.00949,-1.01358,12.956,-23.869,45.823,25.466
0.34121,-0.09280,35.31476,-0.00138,0.00056,-0.98568,12.340,-23.575,45.719,25.391
0.34488,-0.48032,35.70792,0.01177,-0.01389,-1.01072,12.171,-24.087,45.661,25.451
0.28210,-0.17945,35.86031,0.01075,0.00692,-1.00106,11.983,-23.989,45.660,25.462
0.29427,0.01003,36.11038,-0.00943,-0.00473,-1.00535,11.246,-23.791,45.929,25.450
0.25744,-0.08629,35.91192,0.00312,0.00303,-0.98800,11.310,-24.454,46.180,25.466
0.55758,-0.26268,36.15756,-0.00277,0.00610,-0.97766,10.966,-24.251,45.552,25.515
0.55644,-0.18121,36.48777,0.00645,-0.02407,-0.98896,11.479,-24.420,45.429,25.427
0.38241,0.11656,36.68826,0.00805,0.00212,-1.00293,10.671,-23.868,45.560,25.434
0.49056,-0.00120,36.66519,-0.00806,-0.01120,-0.99274,9.923,-24.574,45.601,25.491
0.59562,-0.02790,37.05568,-0.00335,-0.00409,-0.99098,9.531,-24.536,45.422,25.450
0.42544,-0.36549,37.02129,-0.00230,-0.00236,-0.99042,9.472,-24.707,45.957,25.545
0.18777,-0.07397,37.21765,-0.00132,-0.00727,-1.00840,9.530,-24.781,46.039,25.449
0.30950,-0.57956,37.14034,0.00541,-0.00820,-1.00381,9.200,-25.011,45.678,25.346
0.24227,-0.37663,37.50867,-0.01180,0.00406,-0.99348,8.796,-25.343,46.222,25.407
0.29489,-0.10791,37.52251,-0.00335,-0.00582,-0.99855,7.771,-25.777,45.896,25.322
0.27718,-0.22010,37.45866,-0.00436,0.00413,-1.00227,7.436,-25.253,45.765,25.451
0.21636,-0.49008,37.98651,-0.00045,0.00751,-0.99644,7.716,-25.088,46.015,25.511
0.23829,-0.36798,37.97934,0.00136,-0.00100,-1.00659,7.048,-25.283,45.729,25.404
0.31262,-0.39563,37.83642,-0.00684,0.00320,-0.99684,7.064,-25.166,45.704,25.428
0.42547,-0.08484,37.87218,0.01494,0.00155,-1.00527,7.071,-25.494,46.180,25.500
0.23777,-0.21405,38.16012,0.00668,-0.01324,-0.99520,6.351,-26.071,45.350,25.405
0.42397,-0.12080,38.31165,0.00757,-0.00432,-0.99496,6.263,-25.873,45.512,25.411
0.23346,-0.17374,38.39290,-0.01232,0.00403,-0.99470,5.530,-25.642,45.871,25.460
0.28509,-0.03217,38.50332,0.01276,-0.00076,-1.02665,5.177,-25.736,45.811,25.494
0.51365,0.02368,38.57490,0.00712,0.00611,-1.00690,5.281,-25.710,45.942,25.550
0.71206,-0.18754,38.67474,0.00576,0.00104,-0.99362,4.876,-26.454,45.563,25.417
0.02951,-0.13625,39.09682,-0.00850,0.00792,-1.01153,4.286,-26.085,45.810,25.526
0.29502,-0.17925,38.94270,0.00262,-0.00935,-1.00325,4.099,-26.598,45.785,25.452
0.24656,-0.26608,39.07062,0.01311,-0.00429,-1.01078,3.801,-25.739,45.632,25.460
0.20289,-0.34037,39.27127,0.00282,0.00141,-1.00254,3.699,-26.319,45.868,25.470
0.18007,-0.32148,39.11654,0.00221,0.00137,-1.00687,2.999,-26.289,45.779,25.471
0.41087,-0.04260,39.44333,0.00902,-0.00958,-1.00446,2.845,-26.274,46.029,25.401
0.44231,0.03538,39.38739,-0.00582,0.01341,-0.99996,2.190,-26.365,45.834,25.511
-0.01748,-0.25287,39.52500,0.01530,0.00004,-0.99358,1.881,-26.279,45.062,25.509
0.51346,-0.27804,39.55096,0.01964,-0.00469,-0.99912,1.978,-26.093,45.510,25.566
0.14967,-0.14531,39.73302,-0.00122,0.00244,-1.01335,1.456,-25.909,45.570,25.514
0.45112,-0.14366,39.77726,-0.00661,0.00263,-0.99615,1.087,-26.625,45.907,25.404
0.55709,0.09369,40.24636,-0.00138,0.00335,-1.01351,0.624,-25.599,45.216,25.477
0.32225,-0.14076,40.05960,0.00647,-0.00026,-1.00874,0.123,-26.045,45.334,25.502
0.02477,0.00379,40.06504,0.01151,0.01349,-1.00214,0.385,-26.087,45.803,25.537
0.30971,-0.08065,40.21223,0.01274,-0.00469,-0.99089,-0.297,-25.942,45.209,25.459
0.43767,-0.15036,40.34719,0.00814,-0.00162,-1.00887,-0.626,-26.088,45.496,25.397
0.49569,-0.31389,40.48342,0.01073,-0.00262,-0.99738,-1.180,-26.191,45.315,25.545
0.41173,-0.16825,40.61735,-0.00709,0.00131,-1.00816,-1.319,-25.878,45.651,25.494
0.44575,-0.16091,40.48366,-0.00599,-0.00066,-0.99018,-1.766,-25.896,45.714,25.444
0.40289,-0.45049,40.69052,0.01443,0.00719,-1.00488,-1.983,-25.999,45.429,25.474
0.23754,-0.02430,40.86521,-0.00589,-0.00003,-1.00173,-2.265,-25.660,45.472,25.498
0.52560,-0.16534,41.14304,-0.00498,0.00853,-0.99913,-2.514,-25.713,45.833,25.379
0.15407,-0.21015,40.91775,-0.00974,-0.01984,-1.00863,-3.095,-26.006,45.847,25.372
0.63899,-0.04233,40.80573,-0.01606,0.00016,-1.01366,-3.687,-25.546,45.210,25.495
0.33489,-0.43696,41.45230,0.00512,-0.00524,-0.99172,-4.018,-25.986,45.654,25.469
0.33490,-0.22766,41.35932,-0.00138,0.00131,-0.99166,-4.213,-25.291,45.600,25.426
0.13581,-0.16177,41.45649,-0.01038,-0.01007,-0.98695,-4.456,-25.486,45.726,25.432
0.36441,-0.18856,41.28536,-0.00923,0.00184,-1.00980,-4.687,-25.348,45.629,25.499
0.38262,-0.09681,41.49596,0.00291,0.00516,-1.00218,-5.332,-25.079,45.918,25.434
0.42338,-0.34559,41.45309,0.00455,-0.00050,-1.00781,-5.834,-24.998,45.769,25.514
0.37611,-0.28086,41.91841,0.01577,-0.00065,-1.00402,-5.936,-25.098,45.361,25.472
0.34974,-0.35095,42.00723,0.02164,0.00233,-1.00719,-6.290,-24.734,45.672,25.469
0.39996,-0.36323,42.01778,-0.00584,0.01435,-1.00509,-7.074,-24.541,45.385,25.660
0.53583,-0.11096,41.87921,0.00577,0.00611,-1.00193,-7.106,-24.787,45.821,25.498
0.27788,-0.25098,42.21703,0.01023,0.00022,-1.00283,-7.152,-24.954,45.573,25.428
0.27445,-0.17524,42.33037,0.01659,0.01286,-1.00285,-7.596,-24.490,45.789,25.453
0.44207,-0.07002,42.16948,0.01052,0.00528,-1.00340,-8.182,-23.808,45.444,25.561
0.64716,-0.15510,42.35713,-0.00128,-0.00774,-0.99246,-8.476,-24.078,46.232,25.480
0.72413,0.02449,42.52168,0.00590,0.01567,-1.00164,-8.798,-23.934,45.418,25.427
0.28642,-0.06353,42.52989,-0.00240,-0.00424,-1.00635,-9.301,-24.006,45.290,25.482
0.40927,-0.29950,42.55316,0.00414,0.00535,-1.00203,-9.236,-23.529,45.272,25.531
0.43479,-0.15403,42.69740,0.01076,-0.01025,-0.98097,-9.812,-23.681,45.243,25.423
0.35495,-0.29957,42.48527,0.00554,-0.01641,-1.00894,-9.461,-23.128,45.642,25.482
0.38059,-0.12992,42.77412,0.00165,0.00132,-1.00457,-10.462,-22.774,45.473,25.477
0.15914,-0.41998,42.67244,-0.00409,0.00244,-0.98912,-10.763,-22.919,45.623,25.557
0.47079,-0.28262,42.97539,-0.00384,0.00324,-1.00866,-11.316,-22.807,45.589,25.433
0.29622,-0.22648,42.80933,0.00858,0.00405,-1.00091,-11.245,-22.229,45.943,25.514
0.26362,0.07242,42.96118,0.00802,0.00331,-1.00033,-11.403,-22.524,45.225,25.545
0.44876,-0.22090,43.13894,-0.00478,0.01294,-0.99864,-12.122,-21.832,45.988,25.555
0.08410,-0.26219,43.07491,0.00440,0.00931,-1.00321,-12.309,-21.812,45.881,25.536
0.13726,-0.41526,43.20860,-0.00459,0.01026,-1.00390,-12.410,-21.837,46.291,25.444
0.25710,0.08890,43.58223,-0.00296,-0.00424,-0.99914,-12.838,-21.465,45.699,25.539
0.22176,0.09458,43.04236,-0.01321,0.00766,-0.99701,-12.860,-20.874,45.743,25.386
0.45651,-0.25393,43.43840,-0.01123,-0.00406,-0.99668,-13.400,-21.094,45.897,25.467
0.41014,-0.26810,43.42458,-0.01919,0.00501,-0.99294,-13.944,-21.152,45.826,25.478
0.32383,-0.15529,43.38848,-0.00653,-0.00360,-1.00570,-13.749,-20.250,45.610,25.483
0.67670,-0.26337,43.49707,0.00535,0.00782,-1.00059,-14.237,-20.376,45.377,25.491
0.51392,-0.38138,43.68721,-0.01296,0.00059,-0.99632,-14.280,-20.057,45.509,25.450
0.50119,-0.38230,43.87182,-0.01759,-0.01005,-0.99461,-14.770,-19.952,45.669,25.439
0.34812,-0.04140,43.47573,0.00736,0.00331,-1.00035,-14.820,-19.276,45.715,25.537
0.16335,-0.34024,43.98558,0.00847,-0.00264,-1.00991,-15.335,-19.491,45.136,25.466
0.19940,-0.08311,43.60482,-0.00764,0.01004,-1.00298,-15.422,-18.732,45.462,25.537
0.47919,-0.30924,43.68546,0.00818,-0.00809,-0.98846,-15.810,-19.010,45.114,25.463
0.43155,-0.41458,43.96803,-0.01172,0.01022,-0.99834,-15.675,-18.383,46.159,25.546
0.42765,-0.44964,44.04509,-0.00496,0.00306,-1.00668,-16.347,-18.227,45.627,25.486
-0.09449,-0.10051,44.00347,0.01416,0.00347,-0.98671,-17.003,-17.978,45.513,25.508
0.46576,-0.48535,44.15596,-0.00565,-0.00977,-1.00877,-16.953,-17.780,45.756,25.461
0.31242,-0.43094,44.04975,0.00866,0.00307,-0.99277,-17.332,-16.945,45.434,25.555
0.54947,-0.37317,44.29013,-0.00179,0.00808,-0.99319,-17.215,-17.250,45.311,25.451
0.20323,-0.25597,44.17206,-0.00502,0.00910,-0.99418,-17.601,-16.918,45.668,25.562
0.20238,-0.25089,44.30975,-0.00178,0.01413,-1.00400,-17.861,-16.573,45.608,25.474
0.51216,-0.22057,44.47236,0.00255,-0.00317,-1.00556,-18.725,-16.114,45.888,25.480
0.38278,-0.00576,44.33503,0.00124,0.00007,-0.99836,-18.843,-16.128,45.429,25.516
0.20927,-0.28416,44.48366,-0.00862,-0.01168,-1.01202,-18.292,-15.559,45.511,25.348
0.38865,-0.33078,44.18729,0.01250,0.00648,-1.00271,-19.314,-14.694,46.030,25.559
0.46254,-0.22974,44.36901,-0.00100,0.01391,-1.00167,-19.419,-14.877,45.525,25.569
0.16002,-0.36563,44.43831,-0.01127,-0.02187,-1.00773,-19.663,-14.468,46.029,25.508
0.18945,-0.21711,44.60551,-0.00142,-0.00952,-1.00377,-19.332,-14.128,45.797,25.465
0.32714,-0.27022,44.51414,-0.01019,0.01221,-1.00419,-19.813,-14.160,45.532,25.372
0.45403,-0.22904,44.40737,0.00295,-0.00327,-1.00638,-20.404,-13.758,45.833,25.478
0.13014,-0.27588,44.61111,0.00086,-0.00975,-1.00802,-20.210,-13.104,46.043,25.477
0.11137,-0.26517,44.63709,-0.00602,-0.01084,-1.00803,-20.246,-12.717,45.529,25.440
0.39738,-0.17579,44.86485,-0.00347,0.00752,-1.00249,-20.816,-12.303,45.849,25.523
0.46578,-0.14039,44.62770,-0.01585,-0.00511,-0.99999,-20.812,-12.063,46.054,25.482
0.21619,-0.00833,44.70789,-0.00024,-0.01782,-1.01403,-20.609,-11.728,46.017,25.601
0.33574,-0.22264,44.73889,0.00126,0.00852,-1.00578,-20.601,-11.944,45.833,25.554
0.39376,-0.12423,44.62062,0.01340,0.00923,-1.00565,-21.625,-11.341,45.562,25.391
0.38747,-0.14352,44.83314,-0.00180,0.00964,-0.99760,-20.732,-10.901,45.777,25.450
0.31422,-0.08569,44.91878,0.00876,0.00760,-1.00551,-22.137,-10.906,46.218,25.434
0.52033,-0.30198,44.74028,0.00561,0.00757,-0.99321,-21.718,-9.818,45.732,25.583
0.40768,-0.07864,44.67761,0.01386,0.01284,-1.00694,-21.397,-9.865,45.762,25.472
0.13033,-0.24753,44.83074,0.00885,-0.00878,-1.00448,-22.104,-9.091,45.768,25.533
0.25563,-0.18796,45.07853,-0.00289,-0.00305,-0.99869,-21.864,-8.897,45.383,25.466
0.18903,0.21933,44.98296,-0.01362,-0.00309,-1.00930,-21.513,-8.385,45.584,25.555
0.50201,-0.33004,44.81234,-0.01016,-0.00243,-1.00053,-22.262,-8.014,45.781,25.489
0.48920,-0.49154,44.97235,-0.00972,0.00335,-0.99307,-22.488,-8.312,46.199,25.564
0.53468,-0.36823,45.09277,0.00239,0.00307,-0.98898,-21.854,-7.356,45.806,25.567
0.36300,-0.22669,45.03410,0.01464,0.01128,-1.02013,-22.044,-7.069,45.371,25.563
0.42966,-0.19699,45.03736,0.01189,0.00618,-1.00567,-23.050,-6.864,45.582,25.470
0.52722,-0.38921,45.01298,0.01213,-0.00714,-0.99583,-22.776,-5.737,45.819,25.442
0.17978,-0.34388,44.87468,0.00754,-0.01120,-0.99629,-22.697,-5.531,46.105,25.567
0.25478,-0.21313,44.90148,0.01696,-0.00049,-0.98792,-22.600,-5.603,45.502,25.486
0.28497,-0.25065,45.28417,0.01015,0.01462,-1.01305,-23.169,-5.208,46.275,25.614
0.27918,-0.20601,45.12747,0.01500,0.00543,-0.98757,-22.886,-4.896,45.500,25.461
0.47619,-0.06197,45.43580,0.00475,0.00055,-1.00515,-22.949,-4.121,45.148,25.446
0.15037,0.08876,45.22830,-0.00350,0.00351,-0.98905,-23.161,-3.852,45.678,25.515
0.38975,-0.12976,45.02390,-0.00720,0.00210,-1.00219,-23.081,-3.246,45.571,25.488
0.39996,-0.23144,45.05610,-0.00754,-0.01085,-1.00237,-22.843,-2.652,45.606,25.518
0.43698,-0.15358,44.98036,0.00699,0.00533,-1.01261,-23.020,-2.648,45.478,25.452
0.54402,-0.12279,45.42445,-0.01000,-0.00400,-1.00515,-23.376,-2.560,45.697,25.423
0.24511,-0.30971,45.29279,-0.00067,0.00403,-1.00224,-23.418,-2.039,45.920,25.555
0.52959,0.12894,45.43957,-0.00009,-0.00111,-0.99879,-23.149,-1.724,45.320,25.519
0.24600,-0.24775,44.89528,0.00883,-0.01150,-0.98477,-23.429,-1.076,45.673,25.446
0.24102,-0.12803,45.05994,0.00717,-0.00091,-1.00536,-23.163,-0.648,45.875,25.596
0.23762,-0.39544,45.28122,-0.00591,0.00072,-1.00816,-23.295,-0.551,45.777,25.519
0.27693,-0.32360,45.25433,-0.01198,-0.00184,-1.00181,-23.107,0.288,45.837,25.542
0.25598,-0.23038,44.90582,0.00432,-0.00895,-0.99221,-23.211,0.779,45.567,25.490
0.13643,-0.06865,45.16723,0.00780,-0.01579,-0.99684,-22.728,1.184,45.466,25.608
0.16385,-0.37863,45.27220,-0.00845,0.00078,-1.00330,-22.592,1.179,46.164,25.534
0.22484,0.07794,45.13044,0.00437,0.00353,-0.98508,-23.406,1.958,45.295,25.456
0.11893,-0.18353,45.08085,0.00359,-0.01591,-1.00652,-22.853,2.144,45.361,25.489
0.45363,-0.06054,44.66818,0.00435,-0.00637,-1.01609,-22.586,2.266,45.865,25.547
0.35289,-0.30093,44.97260,0.00531,0.00077,-0.99859,-23.067,2.282,46.002,25.476
0.48199,0.06908,45.42631,-0.00359,-0.01521,-1.00679,-22.308,3.056,45.823,25.516
0.30354,-0.07734,45.33657,0.02031,0.00303,-1.01150,-22.544,3.429,45.555,25.386
0.52670,-0.11837,45.05370,-0.00137,0.00645,-1.00526,-22.444,4.293,45.774,25.543
0.01895,-0.26273,44.70664,0.00113,0.00560,-0.99810,-22.694,4.506,45.636,25.511
0.35000,-0.47333,44.95826,0.00085,-0.00402,-1.00134,-22.164,4.584,45.697,25.496
0.11206,0.00156,44.97239,0.00148,-0.00582,-1.01090,-22.647,5.399,45.967,25.437
0.23541,-0.14441,45.20933,-0.00448,-0.00877,-1.00300,-22.374,5.940,45.793,25.497
0.28399,-0.33360,44.89447,-0.00022,0.00540,-1.01345,-22.133,5.828,45.600,25.528
0.43279,-0.46709,44.96318,-0.00084,0.01446,-0.99878,-21.860,5.889,45.896,25.566
0.46515,-0.34055,45.11441,-0.01003,0.00321,-0.99748,-22.027,6.354,45.699,25.487
0.65933,-0.01902,45.17508,0.00034,0.00027,-0.99745,-21.664,6.990,45.422,25.498
0.49494,0.20161,44.81212,-0.00316,-0.00285,-0.98833,-21.668,7.187,45.712,25.514
0.39473,-0.13105,44.98142,0.00786,0.01223,-1.00212,-21.621,7.525,45.786,25.550
0.43919,-0.22450,44.70940,-0.00805,-0.00764,-1.00566,-21.510,8.242,45.885,25.437
0.13523,-0.26174,44.92944,-0.00121,0.00008,-1.00292,-21.094,8.434,45.664,25.441
0.37527,-0.27578,44.81356,-0.01264,0.01317,-0.99900,-20.871,8.881,45.906,25.487
0.25522,-0.42503,44.87266,0.00251,0.00468,-1.00740,-21.011,8.776,45.277,25.511
0.13189,0.29758,44.81113,0.00990,0.00720,-0.99802,-21.106,9.476,46.130,25.466
0.51489,-0.24902,44.84208,-0.00520,0.00836,-0.98962,-20.715,9.794,45.841,25.545
0.56171,-0.23364,44.65971,0.00079,0.00303,-1.01138,-20.337,10.411,45.746,25.532
0.28369,-0.16604,44.63312,0.00143,-0.00530,-0.99574,-20.011,10.372,45.742,25.570
0.32375,-0.37758,44.70172,-0.00153,0.00276,-1.00054,-20.040,10.780,45.575,25.564
0.32314,-0.11350,44.83917,-0.00503,-0.00112,-0.99935,-19.994,11.278,45.442,25.458
0.28102,-0.18701,44.63588,0.00473,-0.00229,-1.01433,-19.590,11.296,45.790,25.510
0.20271,-0.16914,44.55109,0.00688,0.00168,-0.98387,-19.761,12.323,46.134,25.499
0.16481,-0.28667,44.43391,0.00459,0.00492,-0.99495,-19.792,11.645,45.746,25.581
0.37262,0.05671,44.27697,0.00065,0.00950,-0.99884,-18.792,12.699,45.628,25.500
0.14655,-0.20841,44.70069,-0.01276,-0.00088,-0.99130,-18.846,12.350,45.678,25.543
0.38016,-0.26276,44.37406,0.01133,-0.00696,-0.98679,-18.843,13.120,45.670,25.559
0.55351,-0.23887,44.05758,-0.00337,-0.01225,-1.01597,-18.584,13.346,45.659,25.435
0.44109,0.03272,44.23577,0.01386,-0.01308,-0.99312,-18.058,13.744,45.736,25.525
0.20265,-0.42726,44.39566,0.00425,0.00381,-1.00243,-18.244,13.811,45.351,25.470
0.44348,-0.14488,44.16739,0.01236,-0.00457,-0.99862,-17.351,14.792,46.059,25.588
0.21388,-0.26668,44.06651,0.01171,-0.01071,-1.00349,-17.694,14.440,45.481,25.602
0.46946,-0.19366,43.93931,-0.00416,0.00201,-1.00182,-17.323,14.805,45.788,25.525
0.45578,-0.07134,44.17412,-0.00215,0.00063,-1.02142,-17.182,15.446,45.703,25.460
0.17435,-0.27116,43.93082,-0.00625,0.00837,-0.98769,-16.685,15.263,46.114,25.592
0.34251,-0.10932,43.86034,-0.00806,0.01456,-0.99502,-16.523,15.869,45.736,25.555
0.52418,0.02827,43.79702,-0.00003,0.00045,-1.01191,-15.849,16.126,45.330,25.523
0.28817,-0.39920,44.07388,0.00266,0.00271,-0.98977,-15.617,16.366,45.493,25.497
0.42220,-0.27345,43.87259,0.00965,0.01138,-1.00671,-15.798,16.931,45.554,25.518
0.41146,-0.02424,43.71041,0.00614,-0.00026,-0.99598,-15.476,16.943,45.412,25.477
0.19740,-0.23134,43.74292,0.00214,0.00444,-1.01241,-15.067,17.026,45.326,25.486
0.46183,-0.41484,43.88154,-0.00965,-0.00172,-0.99795,-15.131,17.170,45.844,25.496
0.22112,-0.22900,43.63734,0.00494,-0.00474,-0.99187,-14.694,17.260,45.461,25.535
0.35819,-0.55772,43.36141,0.00134,0.00331,-1.01139,-14.239,17.861,45.706,25.523
0.39714,-0.21064,43.62530,0.00045,0.00868,-1.00000,-14.125,17.510,45.897,25.550
0.10696,-0.53648,43.44058,-0.00772,-0.00218,-0.98856,-13.766,18.442,45.802,25.542
0.01462,-0.12695,43.72038,-0.00186,0.00828,-0.99219,-13.024,18.481,46.125,25.444
0.38346,-0.15476,43.30394,-0.00871,0.00932,-1.00807,-13.155,18.892,45.618,25.517
0.31263,-0.31759,43.15270,0.00467,0.00828,-0.99803,-12.995,19.095,46.233,25.533
0.13974,-0.53623,43.37630,-0.00882,-0.00105,-1.00528,-12.578,19.651,45.858,25.517
0.24879,-0.47411,43.19055,-0.00006,-0.01455,-1.00610,-12.591,19.352,45.805,25.449
0.34421,-0.34312,43.20394,0.00404,0.00431,-1.00906,-12.293,20.086,45.655,25.464
0.25793,-0.02658,42.85265,0.00581,-0.01591,-0.98350,-11.586,19.764,45.456,25.433
0.28090,-0.35712,43.01392,-0.00082,-0.00009,-0.99565,-10.964,19.939,45.405,25.545
0.21649,-0.50530,42.69950,0.01491,0.00445,-1.00049,-11.157,20.593,45.685,25.429
-0.01912,-0.40427,42.89149,-0.01441,-0.01185,-0.99097,-10.084,19.964,45.410,25.511
0.24767,-0.27252,42.40908,-0.00596,-0.00078,-1.01212,-10.250,20.385,45.484,25.612
0.10329,0.03197,42.40542,-0.00214,0.00144,-0.99270,-10.341,21.072,45.982,25.572
0.07754,-0.13834,42.68615,-0.00316,0.01421,-0.99995,-9.783,21.013,45.761,25.544
0.45618,-0.25442,42.30518,0.00831,-0.00348,-1.00094,-9.312,21.134,45.826,25.534
0.45199,0.01861,42.56885,0.00265,0.00798,-1.00254,-9.160,21.545,45.633,25.489
0.27191,-0.15351,42.21163,0.00464,-0.01095,-0.99851,-8.386,21.579,45.916,25.538
0.57855,-0.17485,42.41242,-0.00603,-0.00352,-1.00088,-8.462,21.333,45.306,25.637
0.31475,-0.21785,42.41033,0.00223,0.00754,-1.00506,-8.094,21.774,45.637,25.452
0.49590,-0.29747,42.16484,-0.00595,0.00210,-1.00021,-7.814,22.346,45.808,25.503
0.33174,-0.20851,42.29483,0.01151,0.00361,-1.01838,-7.592,22.180,45.325,25.549
0.08946,0.00061,41.98253,-0.00208,-0.01063,-1.00635,-7.511,22.240,45.661,25.560
0.31629,-0.08969,41.99714,0.00295,0.00278,-1.00455,-6.657,22.338,45.774,25.443
0.56385,-0.36453,41.94118,0.00138,-0.00650,-0.98976,-6.184,22.307,45.336,25.559
0.40899,-0.25658,41.92596,0.01008,0.00972,-1.00338,-6.162,22.662,45.685,25.523
0.12210,-0.25635,41.63841,-0.00284,-0.00638,-0.99893,-5.840,22.589,45.880,25.549
0.48385,-0.26474,41.32810,0.01043,0.01360,-1.00904,-5.141,22.888,45.367,25.502
-0.12605,-0.05233,41.43552,0.00447,0.01291,-0.99424,-4.799,23.123,45.532,25.521
0.39820,-0.15589,41.42524,-0.00114,0.01310,-0.99481,-4.271,23.220,45.673,25.531
0.40951,-0.27561,41.60709,-0.00759,0.00164,-1.00491,-4.485,23.114,45.903,25.564
0.22473,-0.35924,41.28599,-0.00424,0.00667,-0.99316,-3.794,23.080,44.965,25.523
0.24662,-0.26563,41.17566,-0.01531,-0.00369,-0.99563,-3.511,23.318,45.241,25.578
0.35680,-0.25488,40.91617,-0.01629,-0.00845,-0.99308,-2.876,22.996,45.942,25.586
0.42907,-0.52424,40.83651,-0.01066,0.00595,-0.99097,-2.905,23.791,45.644,25.542
0.40776,-0.19443,40.96338,-0.00282,-0.00485,-1.00596,-2.672,23.609,45.896,25.432
0.28875,-0.04469,40.74555,0.00608,0.00908,-1.00304,-2.485,23.826,45.556,25.466
0.53131,-0.31461,40.60805,-0.00886,-0.00343,-0.99933,-1.981,23.561,45.350,25.530
0.34881,-0.10147,40.60101,0.00655,-0.00691,-1.00059,-0.949,23.290,45.489,25.519
0.25279,0.04301,40.36848,-0.00091,-0.00073,-0.99163,-1.282,23.277,45.807,25.521
0.36565,-0.34444,40.37080,-0.00699,-0.00679,-1.00187,-0.603,23.359,45.887,25.610
0.50241,-0.37023,40.40075,0.01359,0.00246,-1.00445,-0.528,23.473,45.709,25.597
0.32474,-0.02725,40.14744,-0.00105,-0.00480,-1.00377,0.445,23.639,45.721,25.539
0.48098,0.10441,40.27850,-0.00386,0.01057,-1.00061,0.292,24.077,45.727,25.555
-0.03128,-0.03383,39.88854,-0.00513,-0.00306,-0.99737,0.794,23.990,45.728,25.525
0.41932,-0.31906,39.81487,-0.00190,0.00385,-1.01783,0.977,23.632,45.952,25.500
0.48588,-0.21157,39.73970,-0.00454,-0.00524,-0.99753,1.149,23.577,45.668,25.604
0.39645,-0.29243,39.59847,-0.00231,0.00272,-0.98578,1.811,23.650,45.238,25.459
0.55703,-0.08645,39.73537,-0.00085,-0.00357,-0.99969,2.179,23.653,45.556,25.550
0.39891,-0.12615,39.59852,0.00369,-0.00378,-0.99017,2.224,23.647,45.727,25.565
0.55608,-0.10332,39.17545,0.00463,-0.00827,-0.99266,2.539,23.995,45.631,25.645
0.08553,-0.20590,39.16723,-0.00106,-0.01106,-0.99993,3.289,23.475,45.429,25.599
0.16279,-0.35774,38.99956,0.00980,0.00185,-0.99330,3.293,23.852,45.655,25.579
0.21359,-0.31968,39.42690,0.00284,0.00046,-0.98764,3.360,23.853,45.525,25.574
0.22221,-0.10145,38.91643,-0.01729,0.00519,-0.99673,4.159,23.928,45.987,25.543
0.49403,0.03639,38.73370,-0.00855,0.00571,-1.01438,4.700,23.627,45.709,25.523
0.40702,-0.25331,38.72930,-0.00241,0.01630,-0.99114,4.600,23.680,45.829,25.514
0.44347,-0.27452,38.56335,0.00898,0.00040,-0.99650,5.478,23.694,45.834,25.424
0.43709,-0.25353,38.17565,-0.00566,0.00464,-1.00360,5.524,23.376,45.679,25.528
0.57220,-0.05532,38.43544,0.00371,-0.01316,-0.99684,5.772,23.337,45.872,25.531
0.64455,-0.20380,38.30396,-0.00955,0.00940,-0.99877,6.251,23.470,45.840,25.556
0.55109,0.00042,38.26697,-0.00902,-0.00110,-0.99409,6.506,23.471,45.705,25.619
0.35158,-0.27587,38.04585,0.00019,-0.01389,-0.99650,6.667,23.075,45.456,25.534
-0.02903,-0.28016,38.06140,-0.00261,-0.01004,-1.00784,7.098,22.814,45.448,25.540
0.17349,-0.22350,37.84400,-0.00513,-0.00620,-1.00449,7.320,23.485,45.494,25.574
0.25862,-0.12702,37.69654,0.00136,-0.01049,-0.99550,8.042,23.483,45.806,25.468
0.27464,-0.32246,37.56644,0.00145,0.00123,-0.99149,7.779,23.027,45.196,25.572
0.19859,-0.18445,37.78762,0.00616,0.01445,-1.01091,8.350,23.000,45.460,25.560
0.25883,-0.35135,37.20299,-0.00433,-0.00908,-1.00072,9.148,22.630,45.470,25.556
0.46781,0.09766,37.42719,0.02150,0.00767,-0.98999,8.991,22.797,45.761,25.610
0.50071,-0.19696,37.11550,-0.00848,-0.00473,-1.00454,9.592,22.741,45.893,25.588
0.09601,-0.20004,37.19206,0.00313,-0.00138,-1.01025,10.211,22.817,45.924,25.531
0.26400,-0.35669,36.78920,-0.00621,0.01113,-0.98616,10.121,22.582,45.644,25.561
0.22871,0.13131,36.74653,0.00976,-0.01300,-0.99260,10.400,22.597,45.683,25.663
0.40553,-0.21980,36.62395,-0.00487,-0.00294,-0.99968,9.826,22.371,45.961,25.526
0.49585,-0.13985,36.58562,-0.00655,0.01547,-1.00201,10.999,22.065,45.212,25.515
0.40289,-0.34355,36.19205,-0.00842,-0.00751,-1.01321,10.788,21.800,45.851,25.472
0.35814,0.05541,36.04260,0.00257,0.00629,-1.00249,12.158,21.752,46.019,25.575
0.38694,-0.32974,36.10316,-0.00910,0.00315,-1.00466,11.957,21.685,45.766,25.573
0.21252,-0.25734,35.87466,-0.00833,-0.00161,-0.99713,12.124,21.880,45.785,25.546
0.22691,0.06964,35.49215,0.00578,0.00514,-0.99254,12.836,21.620,45.836,25.580
0.47656,-0.34020,35.80104,-0.00276,-0.01289,-0.99128,12.461,21.710,45.776,25.581
0.28202,-0.09092,35.52336,0.00165,0.00030,-1.00100,12.535,21.168,46.255,25.628
0.42738,-0.42247,35.33968,-0.00003,0.00188,-0.99615,13.330,21.080,45.517,25.470
0.22806,-0.06730,35.49638,0.00425,-0.00109,-0.99803,12.719,20.593,45.352,25.495
0.38250,-0.13441,34.67967,0.01607,0.00837,-0.99329,13.407,20.618,45.802,25.521
0.53796,-0.13874,34.89200,0.01147,-0.00111,-1.00342,13.602,20.439,46.180,25.577
0.23236,-0.41895,34.81428,-0.00701,-0.00666,-1.00037,14.097,20.284,45.765,25.523
0.47845,-0.23247,34.56597,0.00526,0.00276,-0.99626,14.720,20.536,45.789,25.574
0.26905,-0.19309,34.70240,0.00611,-0.00401,-1.00973,14.633,19.961,45.959,25.608
0.52788,-0.28711,34.02458,-0.00986,0.00227,-0.99123,15.084,20.098,45.734,25.576
0.63808,-0.16245,34.17668,0.00514,-0.01172,-0.99982,14.879,20.146,45.642,25.583
0.16820,0.12647,33.91429,0.00326,0.00892,-1.00524,15.433,19.720,45.830,25.438
0.20041,-0.13254,33.96472,-0.00033,0.00443,-1.00394,15.191,19.206,46.035,25.516
0.12604,-0.09294,33.56930,-0.00928,0.00240,-1.00735,16.220,19.427,45.834,25.508
0.38267,-0.08914,33.44499,-0.01097,-0.00984,-1.00031,16.784,18.747,45.440,25.516
0.01330,-0.07414,33.47684,-0.00838,-0.00194,-1.00988,16.003,18.985,45.917,25.574
0.17404,-0.10415,33.31622,-0.00876,0.01327,-1.01275,16.938,18.740,45.727,25.605
0.21216,-0.30856,33.04978,0.01105,0.00561,-0.99861,17.034,18.635,45.672,25.623
0.70774,-0.12684,32.81874,0.00252,-0.01827,-0.99140,17.168,18.379,45.825,25.505
0.19661,-0.13156,33.06064,-0.00418,-0.00436,-1.00527,17.263,18.344,45.874,25.560
0.28466,-0.32482,32.72992,0.00389,0.01024,-1.00069,17.402,18.491,45.818,25.636
0.53986,-0.11612,32.51846,-0.00054,0.00912,-0.99030,17.751,18.400,45.579,25.518
0.43417,-0.27646,32.36501,0.00311,0.00626,-1.00286,17.681,17.771,46.349,25.624
0.55538,-0.43002,32.28049,0.00012,0.00255,-1.01400,18.806,17.449,45.909,25.600
0.53477,-0.04331,32.03897,-0.00880,0.00855,-0.99175,18.389,17.589,45.758,25.520
0.27595,-0.15706,32.07235,-0.00436,0.00944,-1.00591,19.032,17.220,45.850,25.564
0.25031,-0.06740,31.64545,-0.00488,0.01344,-1.00075,18.681,17.298,45.379,25.619
0.49304,-0.11109,31.55675,-0.00512,0.00419,-0.98940,19.078,16.516,46.420,25.630
0.38194,-0.00290,31.50159,-0.00486,0.00103,-1.00785,19.110,16.607,45.966,25.581
0.49054,-0.21671,31.53411,-0.00144,-0.00493,-1.00667,19.753,15.984,45.770,25.551
0.46123,-0.38812,30.94883,-0.00150,0.00614,-0.99296,20.001,16.346,45.512,25.626
0.62895,-0.16227,30.79643,0.00631,0.00292,-1.00599,19.840,16.098,45.501,25.690
0.42563,-0.13210,30.61713,0.00317,-0.00442,-0.99304,20.246,16.108,45.892,25.588
0.34009,-0.18940,30.64226,-0.00084,-0.00384,-1.01568,20.462,15.634,45.843,25.530
0.44712,-0.15386,30.18016,0.01449,0.00227,-0.99496,20.388,15.408,45.622,25.663
0.17197,-0.27810,30.33920,-0.01131,-0.01001,-1.00318,20.430,15.189,45.502,25.556
0.54833,-0.37319,30.31722,0.00454,-0.01027,-0.99437,20.669,15.269,46.255,25.621
0.28939,-0.25756,29.65043,0.00130,-0.00643,-0.99234,20.819,15.324,45.289,25.537
0.42926,-0.17511,29.52611,-0.00834,0.00756,-1.00839,21.189,14.812,45.662,25.541
0.63882,-0.29942,29.01283,-0.00147,0.00973,-0.99968,21.113,15.035,45.728,25.539
0.29984,-0.23545,29.34195,0.01151,0.00347,-0.99083,21.196,14.608,45.239,25.512
0.32339,-0.10964,29.15738,-0.00324,-0.01014,-0.99444,20.806,14.208,45.566,25.590
0.34855,-0.14144,29.01604,0.01049,0.00870,-0.99184,21.698,14.051,46.114,25.571
0.32324,-0.44613,28.82009,0.00416,0.01012,-1.00264,21.571,13.474,45.721,25.565
0.42980,-0.15651,28.71632,0.01012,0.00358,-1.01572,21.832,13.828,45.498,25.509
0.25565,-0.18497,28.31800,-0.00409,-0.00976,-0.98712,22.326,13.112,45.092,25.581
0.24438,-0.17621,28.12148,0.00191,0.00297,-1.01486,22.234,12.894,45.736,25.597
0.32163,-0.10086,28.13112,0.01228,-0.01338,-0.99773,22.629,13.108,45.643,25.608
0.44091,0.06542,28.03773,-0.01742,-0.00113,-0.99092,22.390,12.848,45.771,25.504
0.02063,0.07192,27.44180,-0.00366,0.00388,-0.99502,22.516,12.737,46.106,25.633
0.22142,-0.23336,27.41350,0.00164,0.00367,-1.00101,22.932,12.284,45.724,25.701
0.61821,-0.34340,26.96518,-0.00819,0.00991,-1.00530,22.928,12.194,45.916,25.564
0.27944,-0.39704,27.07262,-0.00018,0.00133,-0.99641,22.885,12.396,45.698,25.666
0.16903,-0.32886,26.70534,-0.01782,-0.00689,-1.00299,22.901,12.037,45.872,25.548
0.43833,-0.32983,26.70837,-0.00985,-0.00849,-0.99963,22.922,11.452,46.125,25.641
0.38528,0.07898,26.54869,0.00792,0.00311,-1.00008,23.106,10.780,45.575,25.587
0.34208,-0.32502,26.40674,0.00352,0.00715,-1.00403,23.866,11.181,46.108,25.510
0.63315,-0.03149,26.06676,-0.00229,-0.00002,-0.98919,23.606,10.413,45.717,25.635
0.33464,-0.13062,25.93315,-0.01291,0.00830,-1.00415,24.174,10.783,45.789,25.563
0.24176,-0.22252,25.72368,-0.00005,-0.00618,-1.01764,23.842,10.289,45.911,25.649
0.54391,-0.24362,25.47929,-0.00454,0.00257,-1.00525,24.091,10.455,45.779,25.550
0.33512,-0.16878,25.13163,0.00347,0.01262,-0.99747,24.003,9.980,45.719,25.495
0.43097,-0.35742,25.02197,-0.01401,0.00422,-0.99344,24.173,10.079,45.919,25.666
0.29459,-0.18970,24.96160,0.00261,-0.00736,-0.99565,24.191,9.682,45.612,25.503
0.48753,-0.34306,24.89110,-0.00624,0.01032,-1.00252,24.199,9.872,45.861,25.522
0.29428,-0.30844,24.43798,0.00155,0.00450,-1.00743,24.287,9.751,46.101,25.541
0.40081,-0.30515,24.24915,0.01321,-0.00341,-0.99923,24.124,9.028,45.759,25.593
0.33489,-0.40463,24.23738,-0.00801,-0.00914,-0.99288,24.492,8.607,45.850,25.592
0.54093,-0.40903,23.91489,0.00258,0.00630,-1.00779,24.963,9.004,45.965,25.613
0.44712,-0.15529,23.43719,-0.00454,0.00894,-0.99746,24.839,8.558,45.798,25.508
0.42181,-0.17482,23.35110,0.00297,-0.00218,-1.00244,24.865,8.209,45.373,25.441
0.32962,-0.18684,23.32471,0.00014,-0.00090,-1.00152,24.948,8.241,45.516,25.659
0.42095,-0.40610,23.16465,0.00258,0.00348,-1.00106,25.066,7.808,45.397,25.648
0.34804,-0.42440,22.78344,-0.02344,-0.00460,-0.98897,25.156,7.643,45.650,25.625
0.45170,-0.06135,22.79127,0.00952,-0.00638,-1.00164,24.723,7.684,45.974,25.660
0.29929,-0.01710,22.58685,0.00206,0.00827,-0.99786,25.548,7.616,45.896,25.586
0.35381,-0.08198,22.15475,0.00636,-0.00978,-1.00098,25.016,7.559,45.714,25.614
0.33688,-0.11293,21.92146,0.01060,-0.00991,-0.98893,25.400,6.961,46.083,25.607
0.31499,-0.25502,21.84228,0.00793,0.00632,-1.00804,25.087,6.722,46.049,25.594
0.11775,-0.48763,21.67083,-0.00233,0.00580,-0.99751,25.594,6.878,45.332,25.647
0.48575,-0.08550,21.35328,-0.00015,-0.00436,-1.00439,25.628,6.542,45.980,25.569
0.51386,-0.29598,20.96583,0.00942,-0.00287,-1.00052,25.572,6.633,46.055,25.619
0.25805,-0.30535,21.02313,0.00915,-0.00628,-1.01133,25.521,6.395,45.713,25.640
0.32040,-0.36068,20.68099,-0.00969,0.00155,-0.99329,25.716,6.041,46.027,25.522
0.23990,0.19132,20.37989,0.00478,0.00002,-1.01347,25.798,5.917,45.553,25.609
0.28850,-0.34211,20.21450,-0.00609,0.01704,-1.00446,25.903,5.817,45.517,25.625
0.32687,-0.09787,19.79714,-0.00673,-0.01788,-1.00059,25.904,5.233,45.486,25.636
0.25595,-0.22057,19.95130,-0.00080,0.00882,-1.00154,25.938,5.390,45.675,25.577
0.33004,-0.26762,19.65879,-0.00472,0.00474,-1.00274,25.962,5.070,45.793,25.556
0.25631,-0.00378,19.28166,0.00348,0.00234,-0.99712,26.263,5.329,45.307,25.578
0.39376,-0.40292,19.05969,-0.00330,-0.00941,-1.00625,26.081,5.144,45.519,25.616
0.39717,0.08674,19.05666,-0.01014,0.01722,-1.00486,25.839,4.627,45.713,25.547
0.22181,-0.11305,18.52661,-0.00004,-0.01512,-1.00518,26.132,4.637,45.886,25.677
0.38664,-0.22063,18.65357,0.00864,0.00319,-0.99729,25.675,4.178,45.710,25.641
0.11986,-0.17950,18.20732,0.00651,0.00400,-1.00053,26.136,4.093,46.049,25.594
0.38248,-0.08005,18.00652,-0.00414,0.00646,-0.99754,26.326,4.251,45.277,25.579
0.30717,-0.03825,17.77481,0.00795,-0.01511,-0.99783,25.884,3.827,45.574,25.610
0.28954,-0.57237,17.37785,-0.00590,0.00785,-0.99609,26.143,4.119,46.189,25.658
0.25047,-0.49875,17.23247,0.00932,-0.01108,-0.99270,26.475,3.438,45.741,25.550
0.19967,-0.21279,16.80177,0.00559,0.01179,-0.99647,26.432,3.689,45.710,25.585
0.44479,-0.19429,16.98946,-0.00059,0.00231,-0.99238,26.443,3.386,45.742,25.587
0.44385,-0.08377,16.46336,0.01196,0.00402,-0.99708,26.493,3.839,45.417,25.668
0.25467,-0.22544,16.17451,-0.00403,0.00483,-1.00688,25.914,2.973,45.181,25.497
0.41081,-0.32835,16.16194,-0.00091,-0.00339,-0.99041,26.635,2.339,45.745,25.551
0.37360,0.07806,16.05711,-0.00681,-0.00805,-1.00146,26.547,3.251,45.604,25.580
0.46543,-0.13336,15.59514,-0.00142,0.00418,-1.00856,26.813,2.753,45.891,25.614
0.03664,-0.37741,15.32570,-0.00857,-0.00048,-0.98549,26.228,2.828,45.165,25.545
0.16556,-0.11971,15.22553,-0.01508,-0.00833,-1.01256,26.259,2.176,45.692,25.523
0.37048,-0.51365,15.02614,0.00519,0.00857,-0.98893,26.230,2.206,45.573,25.587
0.23514,-0.27000,14.66927,-0.01655,-0.01285,-1.00600,26.946,1.765,45.794,25.584
0.49463,-0.45050,14.42206,0.01373,0.00139,-1.00837,25.993,1.877,46.030,25.623
